Timestamp,Accel X,Accel Y,Accel Z,Gyro X,Gyro Y,Gyro Z,Temperature,Humidity,MQ2,MQ135,Distance
2025-02-14 20:53:16.281520,0.17,0.25,1.08,-3.52,-2.21,0.77,32.30,67.00,202.39,6.53,321.32
2025-02-14 20:53:16.411479,0.17,0.26,1.07,-4.67,0.05,0.82,32.30,67.00,202.39,6.55,321.32
2025-02-14 20:53:16.551592,0.18,0.26,1.08,-3.64,0.21,0.74,32.30,67.00,202.39,6.55,322.29
2025-02-14 20:53:16.676420,0.18,0.26,1.08,-4.06,0.21,0.82,32.30,67.00,202.39,6.55,322.42
2025-02-14 20:53:16.796451,0.18,0.25,1.07,-3.73,0.24,0.73,32.30,67.00,202.39,6.55,322.34
2025-02-14 20:53:16.920829,0.18,0.25,1.07,-3.79,0.31,0.95,32.30,67.00,202.39,6.55,322.35
2025-02-14 20:53:17.050482,0.18,0.26,1.08,-3.79,-0.01,0.95,32.30,67.00,204.84,6.55,321.37
2025-02-14 20:53:17.172180,0.18,0.25,1.07,-3.62,-0.02,0.79,32.30,67.00,202.39,6.55,321.35
2025-02-14 20:53:17.294329,0.17,0.25,1.07,-3.61,-0.17,0.68,32.30,67.00,202.39,6.55,321.37
2025-02-14 20:53:17.426122,0.17,0.26,1.07,-4.11,0.08,0.89,32.30,67.00,202.39,6.55,321.44
2025-02-14 20:53:17.544991,0.17,0.26,1.08,-3.78,0.08,0.83,32.30,67.00,202.39,6.55,321.50
2025-02-14 20:53:17.670057,0.17,0.26,1.08,-3.80,0.27,0.79,32.30,67.00,202.39,6.55,321.28
2025-02-14 20:53:17.794033,0.18,0.25,1.07,-3.82,0.16,0.76,32.30,67.00,202.39,6.58,321.25
2025-02-14 20:53:17.918794,0.17,0.26,1.06,-3.33,0.08,0.84,32.30,67.00,202.39,6.55,321.35
2025-02-14 20:53:18.043883,0.18,0.25,1.07,-4.11,0.03,0.66,32.30,67.00,202.39,6.55,321.40
2025-02-14 20:53:18.175475,0.18,0.26,1.07,-3.72,0.09,0.73,32.30,67.00,202.39,6.58,321.39
2025-02-14 20:53:18.293845,0.17,0.26,1.06,-3.83,0.13,0.72,32.30,67.00,202.39,6.58,321.33
2025-02-14 20:53:18.422987,0.18,0.26,1.08,-3.94,-0.11,0.86,32.30,67.00,202.39,6.55,321.35
2025-02-14 20:53:18.659944,0.17,0.25,1.07,-3.85,0.08,0.75,32.30,67.00,204.84,6.58,322.41
2025-02-14 20:53:18.774454,0.18,0.26,1.07,-3.79,0.33,0.63,32.30,67.00,202.39,6.58,322.25
2025-02-14 20:53:18.885989,0.17,0.26,1.07,-4.24,0.23,0.88,32.30,67.00,202.39,6.58,322.22
2025-02-14 20:53:19.002233,0.18,0.27,1.06,-3.77,-0.08,0.71,32.30,67.00,202.39,6.58,322.29
2025-02-14 20:53:19.123297,0.18,0.26,1.08,-3.97,0.34,0.91,32.30,67.00,204.84,6.58,321.37
2025-02-14 20:53:19.226446,0.18,0.26,1.08,-3.73,0.07,0.97,32.30,67.00,204.84,6.58,321.42
2025-02-14 20:53:19.336435,0.18,0.26,1.09,-3.56,0.32,0.89,32.30,67.00,204.84,6.58,321.27
2025-02-14 20:53:19.454965,0.17,0.26,1.07,-3.76,0.15,0.93,32.30,67.00,204.84,6.58,321.28
2025-02-14 20:53:19.585960,0.18,0.26,1.07,-3.79,-0.01,0.85,32.30,67.00,202.39,6.58,321.35
2025-02-14 20:53:19.707620,0.18,0.26,1.06,-4.13,0.62,0.74,32.30,67.00,202.39,6.58,321.47
2025-02-14 20:53:19.829172,0.17,0.26,1.08,-3.96,-0.18,0.86,32.30,67.00,202.39,6.58,321.44
2025-02-14 20:53:19.947855,0.17,0.25,1.07,-3.90,0.24,0.89,32.30,67.00,204.84,6.58,321.32
2025-02-14 20:53:20.078392,0.17,0.26,1.07,-3.95,0.23,0.76,32.30,67.00,202.39,6.61,321.40
2025-02-14 20:53:20.196871,0.18,0.24,1.09,-4.21,-0.47,0.81,32.30,67.00,204.84,6.58,321.33
2025-02-14 20:53:20.317024,0.18,0.25,1.08,-4.06,0.07,0.88,32.30,67.00,204.84,6.58,321.39
2025-02-14 20:53:20.449865,0.17,0.25,1.07,-3.89,0.35,0.98,32.30,67.00,204.84,6.58,321.44
2025-02-14 20:53:20.656957,0.18,0.26,1.05,-4.07,0.40,1.01,32.30,67.00,204.84,6.58,322.47
2025-02-14 20:53:20.764467,0.17,0.26,1.07,-3.84,0.02,0.66,32.30,67.00,204.84,6.58,322.61
2025-02-14 20:53:20.876499,0.18,0.26,1.07,-3.88,0.27,0.95,32.30,67.00,202.39,6.58,322.46
2025-02-14 20:53:20.985866,0.17,0.26,1.06,-3.94,0.34,0.91,32.30,67.00,202.39,6.58,322.22
2025-02-14 20:53:21.093887,0.17,0.26,1.07,-3.84,0.09,0.85,32.30,67.00,204.84,6.58,321.33
2025-02-14 20:53:21.218724,0.18,0.26,1.07,-3.75,0.27,0.85,32.30,67.00,202.39,6.58,321.32
2025-02-14 20:53:21.343955,0.17,0.26,1.08,-3.74,0.11,0.79,32.30,67.00,204.84,6.58,321.37
2025-02-14 20:53:21.464884,0.18,0.26,1.07,-3.84,0.30,0.69,32.30,67.00,202.39,6.58,321.30
2025-02-14 20:53:21.590063,0.18,0.25,1.07,-3.91,0.23,0.92,32.30,67.00,204.84,6.58,321.28
2025-02-14 20:53:21.711221,0.18,0.26,1.07,-3.79,0.11,0.93,32.30,67.00,204.84,6.58,321.27
2025-02-14 20:53:21.839618,0.17,0.26,1.09,-3.57,0.35,0.99,32.30,67.00,204.84,6.58,321.30
2025-02-14 20:53:21.960402,0.18,0.26,1.06,-3.81,0.15,0.87,32.30,67.00,204.84,6.58,321.40
2025-02-14 20:53:22.092119,0.18,0.26,1.07,-3.86,0.15,0.88,32.30,67.00,204.84,6.58,321.23
2025-02-14 20:53:22.215085,0.17,0.26,1.07,-3.85,0.38,0.79,32.30,67.00,202.39,6.58,321.13
2025-02-14 20:53:22.343425,0.18,0.25,1.08,-3.71,0.21,0.74,32.30,67.00,204.84,6.58,321.25
2025-02-14 20:53:22.459193,0.18,0.26,1.07,-3.66,0.11,0.74,32.30,67.00,202.39,6.61,321.22
2025-02-14 20:53:22.666441,0.18,0.26,1.06,-3.93,0.12,0.74,32.30,67.00,204.84,6.58,322.29
2025-02-14 20:53:22.772546,0.17,0.25,1.07,-3.63,0.05,0.86,32.30,67.00,202.39,6.61,322.17
2025-02-14 20:53:22.877079,0.18,0.26,1.07,-3.65,0.37,0.76,32.30,67.00,202.39,6.61,322.27
2025-02-14 20:53:22.985208,0.18,0.25,1.07,-4.36,0.15,0.73,32.30,67.00,202.39,6.61,322.25
2025-02-14 20:53:23.112295,0.18,0.26,1.07,-3.82,0.26,0.92,32.30,67.00,202.39,6.61,321.35
2025-02-14 20:53:23.234437,0.18,0.26,1.06,-3.71,0.30,0.99,32.30,67.00,204.84,6.61,321.32
2025-02-14 20:53:23.358759,0.18,0.26,1.08,-3.87,0.05,0.80,32.30,67.00,204.84,6.61,321.27
2025-02-14 20:53:23.485056,0.17,0.26,1.07,-3.77,0.20,0.85,32.30,67.00,202.39,6.61,321.11
2025-02-14 20:53:23.606694,0.17,0.26,1.07,-3.76,0.05,0.76,32.30,67.00,204.84,6.61,321.28
2025-02-14 20:53:23.746495,0.17,0.26,1.07,-3.83,-0.06,0.85,32.30,67.00,204.84,6.61,321.28
2025-02-14 20:53:23.875226,0.18,0.26,1.08,-3.71,0.11,0.87,32.30,67.00,204.84,6.61,321.20
2025-02-14 20:53:23.984030,0.17,0.26,1.07,-3.96,0.31,0.86,32.30,67.00,204.84,6.61,321.32
2025-02-14 20:53:24.117362,0.18,0.26,1.07,-3.80,-0.04,1.04,32.30,67.00,204.84,6.61,321.28
2025-02-14 20:53:24.242805,0.18,0.26,1.07,-3.91,0.20,0.79,32.30,67.00,204.84,6.61,321.33
2025-02-14 20:53:24.360842,0.17,0.26,1.07,-3.90,0.04,0.98,32.30,67.00,204.84,6.63,321.25
2025-02-14 20:53:24.484633,0.18,0.27,1.06,-3.61,0.40,0.98,32.30,67.00,204.84,6.63,321.22
2025-02-14 20:53:24.696223,0.18,0.26,1.09,-3.56,-0.31,0.78,32.30,67.00,204.84,6.63,322.18
2025-02-14 20:53:24.807178,0.18,0.25,1.07,-3.97,0.05,0.90,32.30,67.00,204.84,6.63,322.00
2025-02-14 20:53:24.964462,0.18,0.26,1.07,-3.70,-0.12,0.91,32.30,67.00,204.84,6.63,322.05
2025-02-14 20:53:25.070368,0.18,0.25,1.07,-3.62,-0.05,0.73,32.30,67.00,204.84,6.63,321.98
2025-02-14 20:53:25.178825,0.17,0.27,1.07,-4.18,0.11,0.73,32.30,67.00,204.84,6.63,321.30
2025-02-14 20:53:25.285197,0.18,0.25,1.09,-3.89,0.63,0.74,32.30,67.00,202.39,6.63,321.61
2025-02-14 20:53:25.428334,0.18,0.25,1.09,-3.44,-0.49,0.94,32.30,67.00,204.84,6.63,321.27
2025-02-14 20:53:25.544779,0.18,0.26,1.08,-3.78,0.40,0.87,32.30,67.00,204.84,6.63,321.06
2025-02-14 20:53:25.652928,0.18,0.25,1.08,-3.79,0.18,0.91,32.30,67.00,204.84,6.63,321.13
2025-02-14 20:53:25.792690,0.17,0.25,1.11,-4.49,0.50,0.82,32.30,67.00,204.84,6.63,321.35
2025-02-14 20:53:25.904234,0.17,0.26,1.08,-3.77,0.24,0.92,32.30,67.00,204.84,6.63,321.35
2025-02-14 20:53:26.031864,0.17,0.26,1.07,-3.70,0.03,0.75,32.30,67.00,204.84,6.63,321.25
2025-02-14 20:53:26.176757,0.18,0.26,1.06,-3.39,-0.01,0.81,32.30,67.00,204.84,6.63,321.13
2025-02-14 20:53:26.301392,0.17,0.26,1.06,-3.45,0.36,0.82,32.30,67.00,204.84,6.63,321.08
2025-02-14 20:53:26.418972,0.17,0.26,1.09,-3.44,0.00,0.66,32.30,67.00,204.84,6.63,321.30
2025-02-14 20:53:26.523719,0.18,0.26,1.06,-4.37,0.80,0.90,32.30,67.00,204.84,6.63,321.30
2025-02-14 20:53:26.656626,0.17,0.25,1.06,-3.56,0.05,0.92,32.30,67.00,204.84,6.63,322.30
2025-02-14 20:53:26.781818,0.18,0.26,1.08,-3.61,0.06,0.69,32.30,67.00,204.84,6.66,322.25
2025-02-14 20:53:26.934078,0.17,0.26,1.08,-3.02,-1.63,0.76,32.30,67.00,204.84,6.63,322.08
2025-02-14 20:53:27.064290,0.18,0.26,1.06,-3.68,0.27,0.85,32.30,67.00,204.84,6.66,322.15
2025-02-14 20:53:27.168677,0.17,0.26,1.07,-4.05,0.16,0.63,32.30,67.00,204.84,6.66,321.18
2025-02-14 20:53:27.279139,0.18,0.26,1.07,-3.56,0.11,0.79,32.30,67.00,204.84,6.66,321.28
2025-02-14 20:53:27.402584,0.18,0.26,1.07,-3.96,0.65,0.93,32.30,67.00,204.84,6.63,321.23
2025-02-14 20:53:27.529301,0.18,0.26,1.08,-3.95,0.07,0.78,32.30,67.00,204.84,6.66,320.96
2025-02-14 20:53:27.647659,0.17,0.26,1.07,-3.92,0.15,0.89,32.30,67.00,204.84,6.66,321.11
2025-02-14 20:53:27.776483,0.17,0.26,1.08,-3.78,0.45,0.88,32.30,67.00,204.84,6.66,321.13
2025-02-14 20:53:27.897595,0.17,0.26,1.07,-3.99,0.37,0.88,32.30,67.00,204.84,6.66,321.10
2025-02-14 20:53:28.022295,0.18,0.26,1.07,-3.37,0.26,0.82,32.30,67.00,204.84,6.66,321.22
2025-02-14 20:53:28.147761,0.17,0.26,1.07,-4.88,1.02,0.89,32.30,67.00,204.84,6.66,321.10
2025-02-14 20:53:28.277942,0.17,0.26,1.08,-4.24,0.24,0.85,32.30,67.00,204.84,6.66,321.20
2025-02-14 20:53:28.398524,0.17,0.26,1.08,-3.64,0.17,0.79,32.30,67.00,204.84,6.66,321.22
2025-02-14 20:53:28.527504,0.18,0.25,1.08,-3.42,-0.06,0.67,32.30,67.00,204.84,6.66,321.23
2025-02-14 20:53:28.741109,0.18,0.26,1.07,-3.79,0.06,0.71,32.30,67.00,204.84,6.66,321.76
2025-02-14 20:53:28.850715,0.18,0.26,1.08,-3.89,-0.14,0.73,32.30,67.00,204.84,6.66,321.96
2025-02-14 20:53:28.972567,0.17,0.26,1.08,-3.73,0.16,0.66,32.30,67.00,204.84,6.66,321.88
2025-02-14 20:53:29.090640,0.18,0.26,1.07,-4.00,-0.01,0.75,32.30,67.00,204.84,6.69,322.17
2025-02-14 20:53:29.211182,0.18,0.25,1.08,-3.71,0.01,0.89,32.30,67.00,204.84,6.66,320.79
2025-02-14 20:53:29.319235,0.18,0.26,1.07,-3.73,0.18,0.85,32.30,67.00,204.84,6.66,320.81
2025-02-14 20:53:29.429757,0.17,0.26,1.08,-3.89,0.23,0.73,32.30,67.00,204.84,6.66,320.93
2025-02-14 20:53:29.550053,0.18,0.26,1.06,-3.97,0.34,0.78,32.30,67.00,204.84,6.66,320.89
2025-02-14 20:53:29.676145,0.18,0.26,1.08,-3.66,0.09,0.74,32.30,67.00,204.84,6.66,320.79
2025-02-14 20:53:29.798490,0.18,0.25,1.07,-3.85,0.13,0.79,32.30,67.00,204.84,6.66,320.76
2025-02-14 20:53:29.925606,0.18,0.26,1.07,-3.87,0.34,1.05,32.30,67.00,204.84,6.66,320.94
2025-02-14 20:53:30.048467,0.17,0.26,1.08,-3.72,0.17,0.82,32.30,67.00,204.84,6.66,320.84
2025-02-14 20:53:30.174416,0.17,0.26,1.08,-3.98,0.29,0.82,32.30,67.00,204.84,6.66,320.82
2025-02-14 20:53:30.307383,0.17,0.26,1.08,-3.73,-0.05,0.82,32.30,67.00,204.84,6.66,321.06
2025-02-14 20:53:30.434657,0.17,0.26,1.08,-3.75,0.11,0.75,32.30,67.00,204.84,6.66,321.16
2025-02-14 20:53:30.544824,0.18,0.26,1.07,-3.64,0.10,0.88,32.30,67.00,204.84,6.66,320.76
2025-02-14 20:53:30.754504,0.18,0.25,1.07,-3.67,0.13,0.73,32.30,67.00,204.84,6.66,321.74
2025-02-14 20:53:30.864971,0.18,0.26,1.07,-3.79,0.15,0.90,32.30,67.00,204.84,6.66,321.83
2025-02-14 20:53:30.975966,0.17,0.26,1.07,-3.76,0.25,0.89,32.30,67.00,204.84,6.66,321.91
2025-02-14 20:53:31.086625,0.18,0.26,1.07,-3.86,0.05,0.64,32.30,67.00,204.84,6.63,321.69
2025-02-14 20:53:31.210382,0.18,0.26,1.08,-3.73,-0.02,0.77,32.30,67.00,204.84,6.63,321.27
2025-02-14 20:53:31.342390,0.17,0.25,1.07,-3.98,0.29,0.95,32.30,67.00,204.84,6.63,321.15
2025-02-14 20:53:31.451386,0.17,0.26,1.06,-3.86,0.13,0.89,32.30,67.00,204.84,6.63,321.27
2025-02-14 20:53:31.570929,0.17,0.26,1.07,-3.77,0.19,0.94,32.30,67.00,204.84,6.63,321.28
2025-02-14 20:53:31.694957,0.17,0.26,1.08,-4.00,0.05,1.07,32.30,67.00,204.84,6.63,321.15
2025-02-14 20:53:31.819172,0.18,0.26,1.07,-3.65,0.28,0.94,32.30,67.00,204.84,6.63,321.13
2025-02-14 20:53:31.945520,0.17,0.25,1.07,-3.83,0.18,0.91,32.30,67.00,204.84,6.63,321.22
2025-02-14 20:53:32.068896,0.18,0.26,1.06,-3.85,0.24,0.82,32.30,67.00,204.84,6.63,321.32
2025-02-14 20:53:32.194026,0.18,0.26,1.07,-3.99,0.18,0.96,32.30,67.00,204.84,6.63,321.23
2025-02-14 20:53:32.331611,0.18,0.26,1.08,-3.88,-0.01,1.04,32.30,67.00,204.84,6.63,321.22
2025-02-14 20:53:32.452259,0.18,0.26,1.07,-3.76,0.15,0.95,32.30,67.00,204.84,6.63,321.22
2025-02-14 20:53:32.566231,0.18,0.26,1.07,-3.71,0.15,0.75,32.30,67.00,204.84,6.63,321.23
2025-02-14 20:53:32.796601,0.18,0.25,1.07,-3.62,-0.06,0.64,32.30,67.00,204.84,6.63,322.25
2025-02-14 20:53:32.925391,0.17,0.26,1.08,-3.79,0.07,0.99,32.30,67.00,204.84,6.66,322.22
2025-02-14 20:53:33.033584,0.17,0.25,1.07,-3.92,0.06,0.79,32.30,67.00,204.84,6.63,322.24
2025-02-14 20:53:33.143405,0.18,0.26,1.08,-3.93,0.23,0.69,32.30,67.00,204.84,6.66,322.29
2025-02-14 20:53:33.253464,0.18,0.26,1.07,-3.85,0.11,0.70,32.30,67.00,204.84,6.66,321.28
2025-02-14 20:53:33.362437,0.17,0.26,1.07,-3.75,0.27,0.82,32.30,67.00,204.84,6.66,321.22
2025-02-14 20:53:33.471350,0.18,0.25,1.08,-3.70,0.03,0.93,32.30,67.00,204.84,6.66,321.20
2025-02-14 20:53:33.591979,0.18,0.26,1.07,-3.80,0.07,0.66,32.30,67.00,204.84,6.66,321.32
2025-02-14 20:53:33.715803,0.18,0.26,1.06,-3.84,0.20,0.83,32.30,67.00,204.84,6.66,321.30
2025-02-14 20:53:33.840615,0.18,0.25,1.07,-3.73,0.05,0.77,32.30,67.00,204.84,6.66,321.22
2025-02-14 20:53:33.965430,0.17,0.27,1.07,-3.98,0.23,1.02,32.30,67.00,204.84,6.66,321.18
2025-02-14 20:53:34.091525,0.18,0.25,1.07,-3.81,0.11,0.66,32.30,67.00,204.84,6.66,321.10
2025-02-14 20:53:34.213251,0.17,0.26,1.07,-3.91,0.31,0.75,32.30,67.00,204.84,6.66,321.30
2025-02-14 20:53:34.339874,0.18,0.26,1.06,-3.89,0.08,0.82,32.30,67.00,204.84,6.66,321.25
2025-02-14 20:53:34.476869,0.18,0.26,1.07,-3.78,-0.11,0.80,32.30,67.00,204.84,6.69,321.13
2025-02-14 20:53:34.587926,0.18,0.25,1.08,-3.87,0.16,0.84,32.30,67.00,204.84,6.69,321.22
2025-02-14 20:53:34.798429,0.18,0.26,1.06,-3.66,0.23,0.85,32.30,67.00,202.39,6.66,322.25
2025-02-14 20:53:34.908309,0.18,0.26,1.08,-3.67,0.09,0.65,32.30,67.00,204.84,6.69,322.18
2025-02-14 20:53:35.015652,0.17,0.26,1.07,-3.85,0.15,0.95,32.30,67.00,204.84,6.69,322.05
2025-02-14 20:53:35.126332,0.17,0.26,1.07,-3.89,0.38,0.88,32.30,67.00,204.84,6.69,322.25
2025-02-14 20:53:35.233786,0.17,0.26,1.07,-3.91,0.39,0.83,32.30,67.00,204.84,6.69,321.33
2025-02-14 20:53:35.378138,0.18,0.25,1.07,-4.08,-0.04,0.90,32.30,67.00,204.84,6.69,321.27
2025-02-14 20:53:35.488944,0.18,0.26,1.07,-3.86,-0.09,0.86,32.30,67.00,204.84,6.69,321.15
2025-02-14 20:53:35.614211,0.18,0.27,1.06,-4.36,0.44,1.00,32.30,67.00,204.84,6.69,321.15
2025-02-14 20:53:35.742423,0.18,0.26,1.08,-3.82,-0.03,0.67,32.30,67.00,204.84,6.69,320.99
2025-02-14 20:53:35.866532,0.17,0.26,1.07,-3.77,0.21,0.79,32.30,67.00,204.84,6.69,321.25
2025-02-14 20:53:36.003801,0.18,0.26,1.07,-3.73,0.15,0.59,32.30,67.00,204.84,6.69,321.25
2025-02-14 20:53:36.107406,0.17,0.26,1.08,-3.80,0.08,0.87,32.30,67.00,204.84,6.69,321.10
2025-02-14 20:53:36.232223,0.18,0.26,1.07,-3.72,0.04,0.89,32.30,67.00,204.84,6.69,321.22
2025-02-14 20:53:36.361725,0.17,0.25,1.07,-3.90,-0.05,0.78,32.30,67.00,204.84,6.72,321.16
2025-02-14 20:53:36.499838,0.18,0.26,1.07,-3.92,0.14,0.74,32.30,67.00,204.84,6.72,321.30
2025-02-14 20:53:36.612035,0.17,0.26,1.07,-3.81,0.27,0.88,32.30,67.00,204.84,6.72,321.18
2025-02-14 20:53:36.824952,0.17,0.25,1.07,-3.73,0.19,0.66,32.30,67.00,204.84,6.72,322.20
2025-02-14 20:53:36.934275,0.18,0.27,1.07,-3.48,0.48,0.89,32.30,67.00,204.84,6.72,322.27
2025-02-14 20:53:37.060346,0.16,0.25,1.08,-3.05,-0.07,0.91,32.30,67.00,204.84,6.72,322.13
2025-02-14 20:53:37.184709,0.19,0.27,1.05,-4.22,4.70,0.88,32.30,67.00,204.84,6.72,322.13
2025-02-14 20:53:37.308616,0.17,0.24,1.08,-3.63,-0.15,0.66,32.30,67.00,204.84,6.72,321.13
2025-02-14 20:53:37.422094,0.18,0.27,1.07,-4.39,0.29,1.02,32.30,67.00,204.84,6.72,321.28
2025-02-14 20:53:37.531696,0.18,0.26,1.06,-2.79,0.31,0.77,32.30,67.00,204.84,6.72,321.30
2025-02-14 20:53:37.657383,0.16,0.24,1.08,-3.03,-1.44,0.60,32.30,67.00,204.84,6.72,321.20
2025-02-14 20:53:37.781189,0.18,0.28,1.07,-3.55,0.20,1.04,32.30,67.00,204.84,6.72,320.98
2025-02-14 20:53:37.892830,0.18,0.25,1.08,-3.75,0.24,0.76,32.30,67.00,204.84,6.72,321.06
2025-02-14 20:53:38.007531,0.17,0.27,1.07,-4.06,0.00,0.70,32.30,67.00,204.84,6.72,321.18
2025-02-14 20:53:38.130271,0.18,0.26,1.06,-4.12,0.50,0.69,32.30,67.00,204.84,6.72,321.23
2025-02-14 20:53:38.262304,0.18,0.27,1.10,-2.99,-0.69,0.66,32.30,67.00,204.84,6.72,321.08
2025-02-14 20:53:38.375528,0.17,0.25,1.09,-2.92,-0.37,0.64,32.30,67.00,204.84,6.72,321.15
2025-02-14 20:53:38.508140,0.18,0.26,1.07,-3.03,0.21,0.86,32.30,67.00,204.84,6.74,321.08
2025-02-14 20:53:38.632462,0.17,0.25,1.07,-2.51,1.15,0.76,32.30,67.00,207.33,6.72,321.15
2025-02-14 20:53:38.861808,0.19,0.25,1.06,-3.40,-0.11,0.81,32.30,67.00,204.84,6.72,322.15
2025-02-14 20:53:38.968958,0.18,0.26,1.08,-4.21,-0.27,0.91,32.30,67.00,204.84,6.74,322.32
2025-02-14 20:53:39.096521,0.17,0.25,1.09,-5.48,0.27,0.85,32.30,67.00,204.84,6.74,322.27
2025-02-14 20:53:39.209238,0.17,0.25,1.09,-3.85,0.14,0.71,32.30,67.00,204.84,6.74,322.13
2025-02-14 20:53:39.318590,0.17,0.26,1.09,-3.18,0.53,0.95,32.30,67.00,204.84,6.74,321.13
2025-02-14 20:53:39.441287,0.17,0.25,1.07,-2.34,-0.44,0.89,32.30,67.00,204.84,6.74,321.11
2025-02-14 20:53:39.567760,0.17,0.29,1.20,-1.96,2.56,0.81,32.30,67.00,202.39,6.74,321.15
2025-02-14 20:53:39.694938,0.17,0.23,0.95,0.95,-7.76,0.29,32.30,67.00,202.39,6.74,321.05
2025-02-14 20:53:39.808113,0.18,0.28,1.10,-4.72,0.69,0.81,32.30,67.00,202.39,6.74,320.86
2025-02-14 20:53:39.932438,0.18,0.25,0.94,0.00,-4.33,0.11,32.30,67.00,204.84,6.72,320.86
2025-02-14 20:53:40.053929,0.18,0.27,1.06,-5.02,0.99,0.85,32.30,67.00,202.39,6.74,320.94
2025-02-14 20:53:40.163510,0.18,0.27,1.07,-3.33,0.05,0.71,32.30,67.00,204.84,6.72,320.93
2025-02-14 20:53:40.276547,0.18,0.26,1.07,-4.01,0.20,0.76,32.30,67.00,202.39,6.74,320.91
2025-02-14 20:53:40.399901,0.18,0.27,1.06,-3.62,0.04,0.81,32.30,67.00,202.39,6.74,320.89
2025-02-14 20:53:40.562939,0.17,0.27,1.07,-3.43,0.34,0.69,32.30,67.00,202.39,6.74,320.88
2025-02-14 20:53:40.679782,0.17,0.26,1.17,-3.08,-0.22,0.85,32.30,67.00,204.84,6.74,321.03
2025-02-14 20:53:40.817379,0.18,0.27,1.14,-5.06,1.53,0.98,32.30,67.00,204.84,6.74,322.12
2025-02-14 20:53:40.928029,0.17,0.26,1.09,-3.75,0.24,0.78,32.30,67.00,204.84,6.74,322.22
2025-02-14 20:53:41.048906,0.18,0.27,1.07,-3.85,0.27,0.85,32.30,67.00,202.39,6.74,322.10
2025-02-14 20:53:41.180531,0.18,0.27,1.14,-4.47,-2.11,1.00,32.30,67.00,204.84,6.74,321.88
2025-02-14 20:53:41.297439,0.19,0.27,1.05,-4.02,-0.23,0.94,32.30,67.00,204.84,6.74,321.03
2025-02-14 20:53:41.423363,0.17,0.27,1.08,-2.15,-1.29,0.66,32.30,67.00,204.84,6.74,320.98
2025-02-14 20:53:41.546782,0.16,0.26,1.14,-2.07,-1.62,0.36,32.30,67.00,204.84,6.74,321.16
2025-02-14 20:53:41.691679,0.18,0.26,1.01,-3.37,0.02,0.81,32.30,67.00,204.84,6.74,321.18
2025-02-14 20:53:41.811133,0.18,0.26,1.05,-3.65,1.90,0.82,32.30,67.00,204.84,6.77,321.01
2025-02-14 20:53:41.924706,0.21,0.28,1.03,-4.89,2.36,0.91,32.30,67.00,204.84,6.77,320.96
2025-02-14 20:53:42.065652,0.17,0.28,1.10,-0.94,-2.85,0.56,32.30,67.00,204.84,6.77,321.03
2025-02-14 20:53:42.196036,0.24,0.20,1.04,14.02,-13.56,-17.01,32.30,67.00,204.84,6.77,321.61
2025-02-14 20:53:42.326960,0.21,0.27,1.06,-3.06,0.86,0.09,32.30,67.00,204.84,6.77,321.33
2025-02-14 20:53:42.444561,0.17,0.31,1.09,-7.24,-5.62,1.66,32.30,67.00,202.39,6.77,321.40
2025-02-14 20:53:42.552158,0.19,0.27,1.08,-2.89,-0.01,0.92,32.30,67.00,204.84,6.77,321.42
2025-02-14 20:53:42.692400,0.19,0.28,1.06,-3.53,0.37,0.82,32.30,67.00,204.84,6.77,321.45
2025-02-14 20:53:42.823033,0.18,0.28,1.07,-3.67,0.33,0.69,32.30,67.00,202.39,6.77,322.44
2025-02-14 20:53:42.945990,0.19,0.29,1.07,-3.17,0.23,0.76,32.30,67.00,204.84,6.77,322.42
2025-02-14 20:53:43.071337,0.18,0.28,1.06,-3.18,0.06,0.68,32.30,67.00,202.39,6.77,322.52
2025-02-14 20:53:43.209017,0.19,0.29,1.07,-3.77,-0.24,0.95,32.30,67.00,202.39,6.77,322.39
2025-02-14 20:53:43.320724,0.19,0.29,1.00,-6.00,2.80,1.17,32.30,67.00,204.84,6.77,321.37
2025-02-14 20:53:43.442794,0.18,0.28,1.06,-3.89,0.13,1.00,32.30,67.00,204.84,6.77,321.32
2025-02-14 20:53:43.592057,0.18,0.28,1.08,-3.76,-0.12,0.79,32.30,67.00,204.84,6.77,321.32
2025-02-14 20:53:43.716503,0.19,0.28,1.07,-3.27,0.31,0.90,32.30,67.00,204.84,6.77,321.32
2025-02-14 20:53:43.846240,0.18,0.30,1.08,-3.37,-0.65,0.82,32.30,67.00,204.84,6.77,321.37
2025-02-14 20:53:43.969908,0.18,0.29,1.06,-3.60,0.34,1.08,32.30,67.00,204.84,6.77,321.25
2025-02-14 20:53:44.080181,0.18,0.28,1.06,-8.79,2.06,0.92,32.30,67.00,202.39,6.77,321.25
2025-02-14 20:53:44.198946,0.17,0.30,1.09,-5.09,0.75,1.29,32.30,67.00,204.84,6.77,321.25
2025-02-14 20:53:44.318217,0.19,0.28,1.06,-3.76,0.92,0.92,32.30,67.00,204.84,6.80,321.39
2025-02-14 20:53:44.439882,0.18,0.28,1.06,-3.86,0.19,1.01,32.30,67.00,202.39,6.80,321.39
2025-02-14 20:53:44.585856,0.18,0.29,1.04,-2.43,-2.46,0.47,32.30,67.00,204.84,6.80,321.22
2025-02-14 20:53:44.695314,0.18,0.29,1.03,-4.11,-0.21,0.79,32.30,67.00,204.84,6.80,321.23
2025-02-14 20:53:44.906553,0.18,0.28,1.06,-3.88,-0.08,0.79,32.30,67.00,204.84,6.80,322.35
2025-02-14 20:53:45.028361,0.19,0.28,1.08,-3.88,0.21,0.76,32.30,67.00,204.84,6.80,322.29
2025-02-14 20:53:45.137212,0.18,0.28,1.06,-3.97,0.21,0.76,32.30,67.00,204.84,6.80,322.17
2025-02-14 20:53:45.255286,0.18,0.29,1.10,-3.64,0.27,0.84,32.30,67.00,202.39,6.80,322.15
2025-02-14 20:53:45.373400,0.19,0.28,1.07,-4.16,-1.90,1.14,32.30,67.00,204.84,6.80,321.15
2025-02-14 20:53:45.493255,0.17,0.28,1.07,-3.40,0.41,0.88,32.30,67.00,204.84,6.80,321.32
2025-02-14 20:53:45.605769,0.18,0.28,1.06,-3.15,0.19,0.80,32.30,67.00,204.84,6.80,321.16
2025-02-14 20:53:45.731048,0.19,0.28,1.07,-3.67,-0.03,0.79,32.30,67.00,204.84,6.80,321.20
2025-02-14 20:53:45.854262,0.18,0.28,1.05,-3.74,0.11,0.62,32.30,67.00,204.84,6.80,321.16
2025-02-14 20:53:45.972761,0.17,0.27,1.08,-3.87,-0.32,0.63,32.30,67.00,204.84,6.80,321.23
2025-02-14 20:53:46.111332,0.19,0.29,1.05,-5.19,1.42,1.05,32.30,67.00,202.39,6.83,321.23
2025-02-14 20:53:46.238869,0.17,0.29,1.18,-3.70,-4.95,0.91,32.30,67.00,202.39,6.80,321.13
2025-02-14 20:53:46.364241,0.19,0.30,1.04,-5.07,1.63,1.10,32.30,67.00,204.84,6.80,321.11
2025-02-14 20:53:46.488111,0.19,0.29,1.05,-5.28,-0.16,1.02,32.30,67.00,202.39,6.83,321.05
2025-02-14 20:53:46.603894,0.19,0.28,1.07,-3.30,-0.11,0.69,32.30,67.00,202.39,6.83,321.13
2025-02-14 20:53:46.730395,0.18,0.28,1.09,-5.48,1.26,1.11,32.30,67.00,202.39,6.83,321.18
2025-02-14 20:53:46.879435,0.18,0.27,1.06,-3.20,-0.77,0.79,32.30,67.00,202.39,6.80,322.29
2025-02-14 20:53:46.989348,0.18,0.28,1.06,-3.72,-0.02,0.82,32.30,67.00,202.39,6.83,322.24
2025-02-14 20:53:47.127792,0.17,0.28,1.06,-3.82,0.35,0.79,32.30,67.00,202.39,6.83,322.20
2025-02-14 20:53:47.237664,0.17,0.31,1.06,-4.66,1.84,0.86,32.30,67.00,204.84,6.83,322.12
2025-02-14 20:53:47.356620,0.18,0.28,1.06,-3.55,0.18,0.38,32.30,67.00,202.39,6.83,321.06
2025-02-14 20:53:47.501596,0.17,0.27,1.06,0.37,-1.60,0.10,32.30,67.00,202.39,6.83,320.99
2025-02-14 20:53:47.625997,0.18,0.28,1.04,-4.08,0.08,0.84,32.30,67.00,202.39,6.83,321.18
2025-02-14 20:53:47.736879,0.19,0.28,1.08,-3.69,0.01,0.81,32.30,67.00,202.39,6.83,320.99
2025-02-14 20:53:47.859522,0.18,0.29,1.05,-3.46,0.53,0.79,32.30,67.00,202.39,6.83,321.01
2025-02-14 20:53:47.997192,0.19,0.29,1.06,-3.66,0.07,0.40,32.30,67.00,202.39,6.83,320.88
2025-02-14 20:53:48.129200,0.18,0.28,1.07,-2.08,-2.73,0.69,32.30,67.00,204.84,6.83,321.06
2025-02-14 20:53:48.259013,0.18,0.29,1.13,-6.24,1.53,1.47,32.30,67.00,202.39,6.83,321.18
2025-02-14 20:53:48.363664,0.16,0.28,1.07,-3.34,0.02,0.67,32.30,67.00,202.39,6.83,321.01
2025-02-14 20:53:48.497038,0.16,0.27,1.12,-4.50,-0.30,1.31,32.30,67.00,202.39,6.85,320.98
2025-02-14 20:53:48.606457,0.19,0.28,1.06,-3.76,-0.04,0.78,32.30,67.00,202.39,6.83,321.01
2025-02-14 20:53:48.755734,0.18,0.28,1.02,-4.08,0.58,1.09,32.30,67.00,202.39,6.83,321.08
2025-02-14 20:53:48.883245,0.18,0.29,1.06,-3.94,0.18,1.06,32.30,67.00,202.39,6.83,322.35
2025-02-14 20:53:49.021019,0.18,0.28,1.06,-3.76,-0.02,0.79,32.30,67.00,202.39,6.85,322.12
2025-02-14 20:53:49.149478,0.18,0.28,1.06,-4.06,0.08,0.82,32.30,67.00,202.39,6.83,322.15
2025-02-14 20:53:49.259264,0.18,0.28,1.06,-3.92,0.17,0.91,32.30,67.00,202.39,6.85,322.00
2025-02-14 20:53:49.383552,0.18,0.28,1.07,-3.47,0.15,0.64,32.30,67.00,202.39,6.85,320.89
2025-02-14 20:53:49.510690,0.18,0.28,1.07,-3.71,0.22,0.86,32.30,67.00,202.39,6.85,320.96
2025-02-14 20:53:49.633819,0.18,0.28,1.06,-4.00,0.33,0.79,32.30,67.00,202.39,6.85,320.96
2025-02-14 20:53:49.759062,0.18,0.28,1.07,-3.47,0.24,0.89,32.30,67.00,202.39,6.85,321.03
2025-02-14 20:53:49.881556,0.18,0.28,1.07,-3.82,0.20,0.90,32.30,67.00,202.39,6.85,321.06
2025-02-14 20:53:50.018174,0.18,0.28,1.11,-3.39,-1.94,0.89,32.30,67.00,202.39,6.85,320.99
2025-02-14 20:53:50.147763,0.18,0.28,1.06,-3.59,0.38,0.86,32.30,67.00,202.39,6.85,320.94
2025-02-14 20:53:50.253825,0.18,0.28,1.06,-4.22,0.10,1.15,32.30,67.00,202.39,6.85,320.94
2025-02-14 20:53:50.382989,0.18,0.28,1.07,-4.35,-0.25,1.02,32.30,67.00,202.39,6.85,321.05
2025-02-14 20:53:50.504237,0.18,0.28,1.07,-2.73,-1.12,0.65,32.30,67.00,202.39,6.85,320.93
2025-02-14 20:53:50.643357,0.17,0.28,1.07,-3.65,0.19,0.86,32.30,67.00,202.39,6.85,320.82
2025-02-14 20:53:50.751756,0.19,0.28,1.06,-3.08,0.23,0.89,32.30,67.00,202.39,6.85,320.89
2025-02-14 20:53:50.977911,0.20,0.30,1.00,-3.87,-1.42,1.02,32.30,67.00,202.39,6.85,322.01
2025-02-14 20:53:51.102171,0.18,0.27,1.05,-4.27,0.89,0.85,32.30,67.00,202.39,6.88,321.93
2025-02-14 20:53:51.215685,0.18,0.26,1.07,-3.63,0.02,0.75,32.30,67.00,202.39,6.85,322.03
2025-02-14 20:53:51.345845,0.18,0.28,1.07,-3.83,-0.02,0.79,32.30,67.00,202.39,6.85,322.00
2025-02-14 20:53:51.471618,0.18,0.28,1.07,-3.79,0.12,0.84,32.30,67.00,202.39,6.88,320.96
2025-02-14 20:53:51.581284,0.18,0.27,1.07,-3.71,0.03,0.66,32.30,67.00,204.84,6.88,320.86
2025-02-14 20:53:51.694281,0.18,0.28,1.07,-3.76,0.31,0.95,32.30,67.00,204.84,6.88,320.81
2025-02-14 20:53:51.808416,0.18,0.29,1.06,-4.04,0.18,1.02,32.30,67.00,204.84,6.88,320.91
2025-02-14 20:53:51.918164,0.18,0.29,1.07,-3.59,0.18,0.94,32.30,67.00,204.84,6.88,320.86
2025-02-14 20:53:52.030916,0.18,0.28,1.07,-3.56,0.18,0.92,32.30,67.00,204.84,6.85,320.69
2025-02-14 20:53:52.151506,0.18,0.28,1.06,-4.27,0.19,0.86,32.30,67.00,202.39,6.88,320.79
2025-02-14 20:53:52.276774,0.18,0.28,1.15,-3.51,0.18,1.08,32.30,67.00,204.84,6.88,320.89
2025-02-14 20:53:52.395480,0.18,0.28,1.06,-4.66,0.41,0.87,32.30,67.00,204.84,6.88,320.79
2025-02-14 20:53:52.539498,0.17,0.27,1.09,-4.60,-0.89,0.80,32.30,67.00,202.39,6.88,320.77
2025-02-14 20:53:52.649666,0.16,0.25,1.05,-3.76,-0.67,0.66,32.30,67.00,202.39,6.88,320.72
2025-02-14 20:53:52.777352,0.17,0.27,1.13,-2.47,-0.32,0.98,32.30,67.00,204.84,6.88,320.79
2025-02-14 20:53:52.987902,0.19,0.27,1.06,-3.41,-0.40,0.96,32.30,67.00,202.39,6.88,321.74
2025-02-14 20:53:53.097615,0.19,0.28,1.09,-3.68,-1.41,1.08,32.30,67.00,202.39,6.88,322.05
2025-02-14 20:53:53.224011,0.18,0.28,1.06,-3.44,0.64,1.23,32.30,67.00,202.39,6.88,321.83
2025-02-14 20:53:53.332401,0.19,0.28,1.02,-4.35,2.39,1.08,32.30,67.00,204.84,6.88,321.88
2025-02-14 20:53:53.444256,0.18,0.27,1.07,-3.76,0.25,0.96,32.30,67.00,202.39,6.88,320.77
2025-02-14 20:53:53.554087,0.18,0.28,1.07,-3.73,0.22,0.72,32.30,67.00,202.39,6.88,320.60
2025-02-14 20:53:53.676804,0.19,0.29,0.99,-4.90,1.42,0.85,32.30,67.00,202.39,6.88,320.76
2025-02-14 20:53:53.814221,0.18,0.28,1.05,-3.51,-0.46,0.89,32.30,67.00,202.39,6.88,320.81
2025-02-14 20:53:53.943611,0.18,0.28,1.03,-3.73,0.20,0.63,32.30,67.00,202.39,6.88,320.72
2025-02-14 20:53:54.084356,0.17,0.28,1.05,-3.23,0.67,0.33,32.30,67.00,202.39,6.88,320.71
2025-02-14 20:53:54.198859,0.19,0.31,1.02,-4.59,-0.79,1.29,32.30,67.00,202.39,6.88,320.67
2025-02-14 20:53:54.305153,0.19,0.29,1.04,-2.51,-0.14,1.44,32.30,67.00,202.39,6.88,320.76
2025-02-14 20:53:54.443199,0.19,0.28,1.11,-4.27,1.16,1.01,32.30,67.00,202.39,6.88,320.74
2025-02-14 20:53:54.566891,0.17,0.28,1.09,-2.41,-3.71,0.69,32.30,67.00,202.39,6.88,320.57
2025-02-14 20:53:54.691852,0.17,0.28,1.04,-2.40,0.85,0.73,32.30,67.00,202.39,6.88,320.60
2025-02-14 20:53:54.799509,0.17,0.27,1.07,-4.44,0.11,0.87,32.30,67.00,200.00,6.88,320.55
2025-02-14 20:53:55.012057,0.17,0.28,1.10,-1.85,-0.99,0.45,32.30,67.00,200.00,6.88,321.64
2025-02-14 20:53:55.140889,0.20,0.32,1.10,-7.12,9.58,1.76,32.30,67.00,200.00,6.91,321.78
2025-02-14 20:53:55.268691,0.18,0.28,1.07,-3.47,-0.35,0.77,32.30,67.00,200.00,6.91,321.69
2025-02-14 20:53:55.395692,0.18,0.27,1.05,-4.47,0.71,0.91,32.30,67.00,200.00,6.88,321.74
2025-02-14 20:53:55.525347,0.18,0.28,1.07,-2.86,-0.11,0.41,32.30,67.00,202.39,6.88,320.59
2025-02-14 20:53:55.650317,0.18,0.27,1.05,-3.07,0.63,0.62,32.30,67.00,200.00,6.91,320.54
2025-02-14 20:53:55.761169,0.18,0.28,1.06,-3.95,0.18,0.93,32.30,67.00,200.00,6.91,320.59
2025-02-14 20:53:55.871357,0.18,0.28,1.07,-3.94,0.29,0.89,32.30,67.00,200.00,6.91,320.59
2025-02-14 20:53:55.981746,0.18,0.27,1.07,-3.82,0.04,0.73,32.30,67.00,200.00,6.91,320.45
2025-02-14 20:53:56.095052,0.17,0.28,1.07,-3.50,0.05,0.61,32.30,67.00,200.00,6.91,320.48
2025-02-14 20:53:56.217694,0.16,0.28,1.07,-3.84,-1.07,0.78,32.30,67.00,200.00,6.91,320.60
2025-02-14 20:53:56.347305,0.18,0.28,1.07,-3.69,0.18,0.56,32.30,67.00,200.00,6.88,320.59
2025-02-14 20:53:56.456659,0.18,0.28,1.06,-3.85,0.31,0.82,32.30,67.00,200.00,6.88,320.37
2025-02-14 20:53:56.584110,0.18,0.28,1.06,-3.91,-0.02,0.83,32.30,67.00,200.00,6.88,320.48
2025-02-14 20:53:56.709166,0.18,0.28,1.06,-3.98,0.15,0.85,32.30,67.00,200.00,6.88,320.57
2025-02-14 20:53:56.818205,0.18,0.27,1.07,-3.54,0.08,0.89,32.30,67.00,200.00,6.88,320.65
2025-02-14 20:53:57.044266,0.18,0.28,1.07,-3.89,-0.21,0.83,32.30,67.00,200.00,6.88,321.61
2025-02-14 20:53:57.167081,0.18,0.28,1.07,-3.46,0.11,0.78,32.30,67.00,200.00,6.88,321.67
2025-02-14 20:53:57.277281,0.17,0.27,1.07,-4.04,0.33,0.91,32.30,67.00,200.00,6.88,321.59
2025-02-14 20:53:57.388609,0.17,0.28,1.07,-3.90,0.29,0.67,32.30,67.00,200.00,6.88,321.47
2025-02-14 20:53:57.498378,0.18,0.27,1.07,-3.89,0.08,0.82,32.30,67.00,200.00,6.88,320.64
2025-02-14 20:53:57.611208,0.18,0.28,1.06,-3.81,0.31,0.81,32.30,67.00,200.00,6.88,320.54
2025-02-14 20:53:57.737121,0.18,0.27,1.08,-3.86,-0.05,0.99,32.30,67.00,200.00,6.88,320.45
2025-02-14 20:53:57.865191,0.19,0.27,1.06,-3.82,0.23,0.87,32.30,67.00,200.00,6.88,320.48
2025-02-14 20:53:57.976169,0.17,0.28,1.06,-3.85,0.11,1.00,32.30,67.00,200.00,6.88,320.60
2025-02-14 20:53:58.088078,0.18,0.28,1.07,-3.82,0.12,0.88,32.30,67.00,200.00,6.88,320.48
2025-02-14 20:53:58.227391,0.18,0.28,1.07,-3.67,-0.03,0.90,32.30,67.00,200.00,6.88,320.54
2025-02-14 20:53:58.350638,0.18,0.29,1.07,-3.56,0.34,0.78,32.30,67.00,200.00,6.88,320.48
2025-02-14 20:53:58.462526,0.18,0.27,1.06,-4.01,0.18,0.73,32.30,67.00,200.00,6.88,320.52
2025-02-14 20:53:58.586497,0.18,0.28,1.06,-3.56,0.14,0.78,32.30,67.00,200.00,6.88,320.62
2025-02-14 20:53:58.708411,0.18,0.27,1.06,-4.07,0.24,0.92,32.30,67.00,200.00,6.88,320.42
2025-02-14 20:53:58.834816,0.18,0.28,1.07,-3.72,0.32,0.76,32.30,67.00,200.00,6.88,320.40
2025-02-14 20:53:59.043369,0.18,0.28,1.06,-3.91,0.11,0.89,32.30,67.00,200.00,6.85,321.45
2025-02-14 20:53:59.152650,0.18,0.27,1.07,-3.60,0.13,0.79,32.30,67.00,200.00,6.88,321.49
2025-02-14 20:53:59.280484,0.17,0.28,1.07,-3.80,-0.03,0.76,32.30,67.00,200.00,6.85,321.56
2025-02-14 20:53:59.402752,0.18,0.28,1.08,-3.69,0.31,0.90,32.30,67.00,200.00,6.88,321.56
2025-02-14 20:53:59.512479,0.18,0.28,1.07,-3.85,0.03,0.98,32.30,67.00,200.00,6.88,320.33
2025-02-14 20:53:59.625897,0.18,0.27,1.07,-3.69,0.31,0.89,32.30,67.00,200.00,6.88,320.47
2025-02-14 20:53:59.735594,0.18,0.28,1.06,-4.05,0.20,0.79,32.30,67.00,202.39,6.88,320.57
2025-02-14 20:53:59.859325,0.18,0.28,1.06,-3.76,0.05,0.85,32.30,67.00,200.00,6.88,320.48
2025-02-14 20:53:59.982948,0.19,0.28,1.06,-3.71,0.07,0.68,32.30,67.00,200.00,6.88,320.30
2025-02-14 20:54:00.109681,0.18,0.28,1.07,-3.82,0.05,0.99,32.30,67.00,200.00,6.88,320.30
2025-02-14 20:54:00.232007,0.18,0.27,1.07,-3.74,0.20,0.69,32.30,67.00,200.00,6.88,320.42
2025-02-14 20:54:00.356965,0.18,0.27,1.06,-3.75,0.05,0.92,32.30,67.00,202.39,6.88,320.45
2025-02-14 20:54:00.481856,0.18,0.28,1.07,-3.62,0.30,0.92,32.30,67.00,200.00,6.88,320.31
2025-02-14 20:54:00.604505,0.18,0.28,1.07,-3.89,0.30,0.89,32.30,67.00,202.39,6.88,320.35
2025-02-14 20:54:00.731252,0.18,0.28,1.06,-3.42,0.22,0.84,32.30,67.00,202.39,6.88,320.50
2025-02-14 20:54:00.861835,0.18,0.28,1.06,-3.74,-0.05,0.89,32.30,67.00,200.00,6.88,320.47
2025-02-14 20:54:01.087426,0.18,0.28,1.07,-3.67,0.10,0.93,32.30,67.00,200.00,6.88,321.59
2025-02-14 20:54:01.201659,0.19,0.28,1.08,-3.95,0.24,0.93,32.30,67.00,200.00,6.91,321.42
2025-02-14 20:54:01.313324,0.18,0.28,1.07,-3.79,0.03,0.86,32.30,67.00,200.00,6.91,321.32
2025-02-14 20:54:01.427101,0.18,0.27,1.07,-3.76,0.02,0.82,32.30,67.00,200.00,6.91,321.39
2025-02-14 20:54:01.538758,0.18,0.28,1.07,-3.88,0.19,0.95,32.30,67.00,200.00,6.91,320.43
2025-02-14 20:54:01.648575,0.18,0.28,1.07,-3.72,0.21,0.89,32.30,67.00,202.39,6.91,320.38
2025-02-14 20:54:01.759686,0.17,0.27,1.06,-3.84,0.02,0.95,32.30,67.00,200.00,6.91,320.30
2025-02-14 20:54:01.878826,0.18,0.28,1.07,-3.76,0.25,0.85,32.30,67.00,200.00,6.91,320.35
2025-02-14 20:54:02.001561,0.18,0.28,1.07,-3.56,0.35,0.82,32.30,67.00,200.00,6.91,320.40
2025-02-14 20:54:02.127244,0.18,0.28,1.06,-3.76,0.27,0.87,32.30,67.00,200.00,6.91,320.33
2025-02-14 20:54:02.252576,0.18,0.28,1.07,-3.95,0.11,0.89,32.30,67.00,200.00,6.91,320.33
2025-02-14 20:54:02.377862,0.18,0.28,1.07,-3.83,0.21,0.89,32.30,67.00,200.00,6.91,320.30
2025-02-14 20:54:02.501208,0.17,0.28,1.06,-3.79,0.17,0.74,32.30,67.00,200.00,6.91,320.33
2025-02-14 20:54:02.628202,0.18,0.28,1.06,-4.15,0.16,0.89,32.30,67.00,200.00,6.91,320.31
2025-02-14 20:54:02.754414,0.18,0.28,1.07,-3.69,0.00,0.88,32.30,67.00,200.00,6.91,320.21
2025-02-14 20:54:02.879625,0.16,0.27,1.12,-4.91,1.39,1.21,32.30,67.00,200.00,6.91,320.40
2025-02-14 20:54:03.099815,0.18,0.28,1.06,-3.69,-0.19,0.99,32.30,67.00,200.00,6.91,321.32
2025-02-14 20:54:03.227611,0.17,0.27,1.06,-3.69,0.22,0.91,32.30,67.00,200.00,6.91,321.33
2025-02-14 20:54:03.346147,0.18,0.28,1.06,-4.16,0.09,0.69,32.30,67.00,200.00,6.91,321.42
2025-02-14 20:54:03.473658,0.17,0.26,1.02,-3.29,-1.08,0.44,32.30,67.00,197.66,6.91,321.30
2025-02-14 20:54:03.594436,0.17,0.29,1.07,-3.10,0.20,0.84,32.30,67.00,200.00,6.91,320.11
2025-02-14 20:54:03.718095,0.18,0.28,1.07,-3.57,-0.31,0.60,32.30,67.00,200.00,6.91,320.26
2025-02-14 20:54:03.841064,0.19,0.28,1.04,-0.04,-0.10,0.98,32.30,67.00,200.00,6.94,320.35
2025-02-14 20:54:03.964690,0.18,0.29,1.06,-4.67,0.31,1.19,32.30,67.00,200.00,6.94,320.25
2025-02-14 20:54:04.074702,0.18,0.28,1.06,-4.80,0.17,1.13,32.30,67.00,200.00,6.94,320.20
2025-02-14 20:54:04.184353,0.19,0.29,1.06,-5.95,1.32,1.27,32.30,67.00,200.00,6.94,320.31
2025-02-14 20:54:04.288095,0.19,0.28,1.06,-3.84,0.11,0.67,32.30,67.00,200.00,6.91,320.33
2025-02-14 20:54:04.397784,0.19,0.28,1.06,-4.40,0.39,1.02,32.30,67.00,200.00,6.91,320.25
2025-02-14 20:54:04.542889,0.18,0.28,1.06,-2.96,-0.36,1.02,32.30,67.00,200.00,6.91,320.35
2025-02-14 20:54:04.660607,0.18,0.27,1.08,-3.73,0.21,1.15,32.30,67.00,200.00,6.94,320.38
2025-02-14 20:54:04.771204,0.19,0.28,1.06,-3.89,0.14,1.24,32.30,67.00,200.00,6.91,320.21
2025-02-14 20:54:04.895207,0.18,0.28,1.07,-3.60,0.34,0.81,32.30,67.00,200.00,6.91,320.16
2025-02-14 20:54:05.105933,0.18,0.28,1.07,-4.08,0.29,0.58,32.30,67.00,200.00,6.91,321.32
2025-02-14 20:54:05.222241,0.19,0.28,1.07,-4.08,-0.02,1.01,32.30,67.00,200.00,6.91,321.13
2025-02-14 20:54:05.332658,0.18,0.27,1.06,-3.75,-0.86,0.41,32.30,67.00,200.00,6.94,321.39
2025-02-14 20:54:05.444745,0.18,0.27,1.01,-2.43,-1.08,0.53,32.30,67.00,200.00,6.94,321.32
2025-02-14 20:54:05.567542,0.18,0.27,1.06,-3.43,0.31,0.85,32.30,67.00,200.00,6.94,320.18
2025-02-14 20:54:05.678004,0.18,0.28,1.07,-3.95,0.14,0.73,32.30,67.00,200.00,6.94,319.99
2025-02-14 20:54:05.790258,0.18,0.28,1.07,-3.59,0.00,0.80,32.30,67.00,202.39,6.94,320.21
2025-02-14 20:54:05.937472,0.18,0.28,1.11,-1.94,-3.15,0.85,32.30,67.00,200.00,6.94,320.26
2025-02-14 20:54:06.062189,0.18,0.28,1.07,-3.40,0.42,1.02,32.30,67.00,202.39,6.94,320.14
2025-02-14 20:54:06.185969,0.19,0.29,1.06,-3.88,-0.50,0.83,32.30,67.00,202.39,6.94,320.23
2025-02-14 20:54:06.311011,0.18,0.28,1.06,-4.45,0.50,1.01,32.30,67.00,200.00,6.94,320.28
2025-02-14 20:54:06.416740,0.19,0.28,1.02,-4.04,1.33,0.78,32.30,67.00,200.00,6.94,320.18
2025-02-14 20:54:06.543185,0.18,0.27,1.08,-6.42,1.60,1.41,32.30,67.00,202.39,6.94,320.16
2025-02-14 20:54:06.665441,0.18,0.28,1.07,-3.80,0.18,0.89,32.30,67.00,202.39,6.94,320.11
2025-02-14 20:54:06.787672,0.17,0.28,1.06,-4.44,0.31,0.94,32.30,67.00,200.00,6.94,320.16
2025-02-14 20:54:06.920609,0.18,0.28,1.06,-4.67,0.68,0.82,32.30,67.00,202.39,6.94,320.04
2025-02-14 20:54:07.061603,0.18,0.26,1.04,-3.99,3.53,0.81,32.30,67.00,202.39,6.97,321.13
2025-02-14 20:54:07.196667,0.17,0.28,1.06,-3.73,-0.23,0.48,32.30,67.00,202.39,6.94,321.11
2025-02-14 20:54:07.319232,0.18,0.29,1.05,-4.21,-0.07,0.62,32.30,67.00,202.39,6.97,321.06
2025-02-14 20:54:07.438260,0.14,0.27,1.15,-7.82,-1.43,0.97,32.30,67.00,200.00,6.97,321.18
2025-02-14 20:54:07.564604,0.17,0.28,1.10,-1.27,-2.33,0.71,32.30,67.00,202.39,6.94,320.18
2025-02-14 20:54:07.685193,0.18,0.25,1.02,-1.22,-3.08,0.26,32.30,67.00,202.39,6.97,320.04
2025-02-14 20:54:07.837411,0.19,0.28,1.08,-2.85,0.16,0.63,32.30,67.00,202.39,6.97,320.01
2025-02-14 20:54:07.947216,0.18,0.28,1.06,-4.21,0.19,0.93,32.30,67.00,202.39,6.97,320.13
2025-02-14 20:54:08.061041,0.18,0.28,1.07,-4.21,0.63,0.77,32.30,67.00,202.39,6.97,319.96
2025-02-14 20:54:08.193238,0.18,0.28,1.04,-2.05,-2.72,0.47,32.30,67.00,202.39,6.97,320.13
2025-02-14 20:54:08.323772,0.18,0.28,1.03,-5.11,1.38,0.94,32.30,67.00,202.39,6.97,320.20
2025-02-14 20:54:08.430385,0.17,0.27,1.10,-3.64,0.48,0.66,32.30,67.00,202.39,6.97,320.08
2025-02-14 20:54:08.579188,0.19,0.27,1.08,-3.87,-0.08,0.75,32.30,67.00,202.39,6.97,319.99
2025-02-14 20:54:08.712309,0.17,0.27,1.03,-5.16,1.40,0.90,32.30,67.00,202.39,6.97,320.01
2025-02-14 20:54:08.821303,0.17,0.29,1.05,-4.12,0.27,1.18,32.30,67.00,202.39,6.97,320.13
2025-02-14 20:54:08.934720,0.17,0.28,1.06,-5.27,0.66,1.21,32.30,67.00,202.39,6.97,320.13
2025-02-14 20:54:09.161627,0.20,0.29,0.96,-2.98,-0.10,0.85,32.30,67.00,202.39,6.97,321.20
2025-02-14 20:54:09.290466,0.19,0.28,1.07,-4.75,0.56,1.47,32.30,67.00,202.39,6.97,321.05
2025-02-14 20:54:09.415842,0.16,0.25,1.15,-2.18,-1.60,0.85,32.30,67.00,202.39,6.97,320.99
2025-02-14 20:54:09.525811,0.18,0.28,1.07,-3.33,-0.05,0.63,32.30,67.00,202.39,6.97,321.05
2025-02-14 20:54:09.633761,0.16,0.28,1.04,-1.60,-3.73,0.14,32.30,67.00,202.39,6.97,320.06
2025-02-14 20:54:09.744281,0.16,0.25,1.13,-3.30,-2.93,0.48,32.30,67.00,202.39,6.97,320.13
2025-02-14 20:54:09.867350,0.17,0.27,1.07,-3.59,0.08,0.94,32.30,67.00,202.39,6.97,319.96
2025-02-14 20:54:09.979061,0.17,0.27,1.07,-7.66,1.91,1.06,32.30,67.00,202.39,6.97,320.01
2025-02-14 20:54:10.091241,0.18,0.27,1.05,-2.17,1.46,0.26,32.30,67.00,202.39,6.97,320.14
2025-02-14 20:54:10.215887,0.17,0.29,1.07,-3.06,-0.28,0.81,32.30,67.00,202.39,6.97,319.92
2025-02-14 20:54:10.346384,0.18,0.29,1.06,-4.41,0.40,1.01,32.30,67.00,202.39,6.97,319.97
2025-02-14 20:54:10.455253,0.18,0.28,1.06,-3.82,0.40,0.77,32.30,67.00,202.39,6.97,320.08
2025-02-14 20:54:10.579441,0.18,0.28,1.06,-3.54,0.31,0.76,32.30,67.00,202.39,6.97,320.11
2025-02-14 20:54:10.702820,0.18,0.27,1.07,-3.82,0.37,0.83,32.30,67.00,202.39,6.97,319.87
2025-02-14 20:54:10.829094,0.18,0.28,1.05,-4.04,0.53,0.92,32.30,67.00,202.39,6.97,319.99
2025-02-14 20:54:10.964274,0.18,0.27,1.07,-3.78,-0.06,0.89,32.30,67.00,202.39,6.97,320.11
2025-02-14 20:54:11.124899,0.18,0.28,1.07,-4.05,0.21,1.02,32.30,67.00,202.39,6.97,321.15
2025-02-14 20:54:11.234089,0.18,0.28,1.07,-3.97,0.47,0.95,32.30,67.00,202.39,6.97,321.10
2025-02-14 20:54:11.352080,0.18,0.28,1.07,-3.71,0.02,0.86,32.30,67.00,204.84,6.97,321.03
2025-02-14 20:54:11.474752,0.18,0.28,1.06,-3.85,0.24,0.89,32.30,67.00,202.39,6.97,321.01
2025-02-14 20:54:11.600807,0.17,0.27,1.07,-3.92,0.12,0.79,32.30,67.00,204.84,6.97,319.99
2025-02-14 20:54:11.728680,0.18,0.27,1.06,-3.60,0.06,0.98,32.30,67.00,204.84,6.97,320.08
2025-02-14 20:54:11.850086,0.18,0.28,1.07,-3.98,0.11,0.85,32.30,67.00,204.84,6.97,319.94
2025-02-14 20:54:11.976351,0.18,0.28,1.06,-3.83,0.05,0.83,32.30,67.00,204.84,6.99,319.89
2025-02-14 20:54:12.100186,0.18,0.28,1.07,-4.05,0.11,0.82,32.30,67.00,204.84,6.97,319.91
2025-02-14 20:54:12.226409,0.18,0.29,1.06,-3.81,0.13,0.89,32.30,67.00,204.84,6.97,320.01
2025-02-14 20:54:12.349399,0.18,0.28,1.07,-3.81,0.40,0.86,32.30,67.00,204.84,6.97,319.91
2025-02-14 20:54:12.481058,0.18,0.28,1.07,-3.59,-0.08,0.82,32.30,67.00,204.84,6.97,319.89
2025-02-14 20:54:12.608270,0.18,0.28,1.07,-3.92,0.26,0.90,32.30,67.00,204.84,6.97,319.96
2025-02-14 20:54:12.724029,0.18,0.28,1.06,-3.89,0.00,0.85,32.30,67.00,204.84,6.97,320.03
2025-02-14 20:54:12.848529,0.19,0.28,1.07,-3.63,0.05,0.89,32.30,67.00,204.84,6.97,319.82
2025-02-14 20:54:12.974581,0.18,0.28,1.07,-3.94,0.20,0.85,32.30,67.00,204.84,6.99,319.97
2025-02-14 20:54:13.184163,0.18,0.28,1.07,-3.77,0.27,0.69,32.30,67.00,204.84,6.97,320.98
2025-02-14 20:54:13.296689,0.17,0.27,1.08,-3.63,0.01,0.89,32.30,67.00,202.39,6.99,320.94
2025-02-14 20:54:13.408599,0.18,0.28,1.06,-4.02,0.39,0.91,32.30,67.00,204.84,6.99,320.94
2025-02-14 20:54:13.513603,0.18,0.26,1.06,-2.18,0.51,0.30,32.30,67.00,204.84,6.99,320.84
2025-02-14 20:54:13.635865,0.17,0.27,1.08,-2.13,-0.56,0.33,32.30,67.00,204.84,6.99,319.86
2025-02-14 20:54:13.756994,0.18,0.28,1.09,-3.27,-1.00,1.01,32.30,67.00,204.84,6.99,319.89
2025-02-14 20:54:13.873342,0.18,0.26,1.07,-2.56,-0.15,0.85,32.30,67.00,204.84,6.99,319.84
2025-02-14 20:54:13.990082,0.18,0.28,1.06,-4.04,-0.31,1.05,32.30,67.00,204.84,6.99,319.75
2025-02-14 20:54:14.134341,0.17,0.28,1.06,-3.42,0.35,0.88,32.30,67.00,204.84,6.99,319.87
2025-02-14 20:54:14.245151,0.17,0.24,1.03,-4.22,3.40,0.96,32.30,67.00,202.39,6.99,319.86
2025-02-14 20:54:14.368989,0.18,0.28,1.06,-4.28,0.24,0.77,32.30,67.00,204.84,6.99,319.80
2025-02-14 20:54:14.508205,0.18,0.27,1.07,-2.91,-0.53,0.71,32.30,67.00,204.84,6.99,319.80
2025-02-14 20:54:14.615841,0.18,0.27,1.07,-2.87,-0.80,0.75,32.30,67.00,204.84,6.99,319.87
2025-02-14 20:54:14.742431,0.16,0.26,1.05,-2.17,-3.87,0.14,32.30,67.00,204.84,6.99,319.86
2025-02-14 20:54:14.867475,0.17,0.28,1.07,-3.29,-0.01,0.81,32.30,67.00,204.84,6.99,319.72
2025-02-14 20:54:14.992203,0.17,0.27,1.07,-3.61,-1.18,0.54,32.30,67.00,204.84,6.99,319.79
2025-02-14 20:54:15.224193,0.17,0.28,1.07,-3.96,0.20,0.82,32.30,67.00,204.84,6.99,320.86
2025-02-14 20:54:15.332540,0.18,0.28,1.06,-3.44,0.15,0.75,32.30,67.00,202.39,6.99,320.67
2025-02-14 20:54:15.443539,0.17,0.28,1.07,-3.48,0.03,0.98,32.30,67.00,204.84,7.02,320.81
2025-02-14 20:54:15.553117,0.17,0.28,1.06,-3.40,0.21,0.83,32.30,67.00,202.39,7.02,320.77
2025-02-14 20:54:15.663144,0.18,0.27,1.04,-3.79,0.18,0.64,32.30,67.00,204.84,6.99,319.74
2025-02-14 20:54:15.773245,0.16,0.28,1.10,-4.67,0.37,0.80,32.30,67.00,204.84,6.99,319.84
2025-02-14 20:54:15.910554,0.15,0.26,1.05,-2.92,-0.50,0.31,32.30,67.00,204.84,6.99,319.87
2025-02-14 20:54:16.036069,0.17,0.28,1.08,-3.84,1.40,0.71,32.30,67.00,204.84,6.99,319.74
2025-02-14 20:54:16.152470,0.19,0.30,1.11,-6.68,8.45,1.69,32.30,67.00,204.84,7.02,319.77
2025-02-14 20:54:16.268999,0.17,0.28,1.09,-4.50,1.16,0.95,32.30,67.00,204.84,7.02,319.86
2025-02-14 20:54:16.406641,0.18,0.28,1.06,-3.63,-0.26,0.75,32.30,67.00,204.84,6.99,319.86
2025-02-14 20:54:16.532214,0.18,0.28,1.06,-3.79,0.01,0.98,32.30,67.00,204.84,7.02,319.69
2025-02-14 20:54:16.652102,0.18,0.27,1.07,-3.58,-0.23,0.94,32.30,67.00,204.84,7.02,319.72
2025-02-14 20:54:16.761391,0.18,0.28,1.06,-3.57,0.05,0.98,32.30,67.00,204.84,7.02,319.80
2025-02-14 20:54:16.887425,0.17,0.26,1.13,-2.11,0.87,0.73,32.30,67.00,204.84,7.02,319.69
2025-02-14 20:54:17.029295,0.18,0.28,1.07,-3.44,-0.31,1.01,32.30,67.00,204.84,7.02,319.67
2025-02-14 20:54:17.162600,0.19,0.27,1.06,-4.56,2.02,1.18,32.30,67.00,204.84,7.02,320.67
2025-02-14 20:54:17.294459,0.18,0.27,1.07,-2.18,-0.49,0.76,32.30,67.00,204.84,7.02,320.69
2025-02-14 20:54:17.415313,0.17,0.28,1.05,-4.53,0.41,0.93,32.30,67.00,204.84,7.02,320.79
2025-02-14 20:54:17.542514,0.19,0.26,0.97,-2.69,1.60,0.82,32.30,67.00,207.33,7.02,320.60
2025-02-14 20:54:17.661183,0.18,0.29,1.09,-5.18,0.17,0.89,32.30,67.00,204.84,7.02,319.57
2025-02-14 20:54:17.794862,0.18,0.28,1.05,-3.39,1.05,0.92,32.30,67.00,204.84,7.02,319.70
2025-02-14 20:54:17.912065,0.18,0.27,1.07,-3.51,1.05,0.74,32.30,67.00,207.33,7.02,319.69
2025-02-14 20:54:18.039498,0.18,0.29,1.04,-4.87,2.36,0.95,32.30,67.00,207.33,7.02,319.57
2025-02-14 20:54:18.163464,0.19,0.27,0.98,-3.69,1.76,1.03,32.30,67.00,207.33,7.02,319.82
2025-02-14 20:54:18.282828,0.18,0.27,1.07,-4.45,1.16,0.92,32.30,67.00,207.33,7.02,319.80
2025-02-14 20:54:18.414206,0.17,0.27,1.07,-3.94,-0.01,0.90,32.30,67.00,207.33,7.02,319.67
2025-02-14 20:54:18.532375,0.19,0.27,0.99,-2.16,-2.76,0.66,32.30,67.00,207.33,7.02,319.72
2025-02-14 20:54:18.672279,0.18,0.27,1.07,-3.40,0.47,1.06,32.30,67.00,207.33,7.02,319.75
2025-02-14 20:54:18.788594,0.19,0.29,1.02,-3.94,0.73,1.11,32.30,67.00,207.33,7.05,319.74
2025-02-14 20:54:18.927309,0.18,0.28,1.08,-3.88,-0.14,0.81,32.30,67.00,207.33,7.05,319.67
2025-02-14 20:54:19.061570,0.19,0.28,1.03,-4.84,3.61,1.15,32.30,67.00,207.33,7.05,319.70
2025-02-14 20:54:19.200707,0.18,0.28,1.07,-3.84,-0.10,1.05,32.30,67.00,207.33,7.05,320.74
2025-02-14 20:54:19.322192,0.17,0.27,1.08,-4.15,0.40,1.01,32.30,67.00,207.33,7.05,320.67
2025-02-14 20:54:19.436884,0.17,0.27,1.07,-4.27,0.05,0.70,32.30,67.00,207.33,7.05,320.72
2025-02-14 20:54:19.568930,0.18,0.27,1.07,-4.15,-0.60,0.74,32.30,67.00,207.33,7.05,320.62
2025-02-14 20:54:19.692625,0.20,0.28,1.04,-4.68,2.73,1.03,32.30,67.00,207.33,7.05,319.65
2025-02-14 20:54:19.804751,0.18,0.26,1.05,-3.20,0.71,0.89,32.30,67.00,207.33,7.05,319.75
2025-02-14 20:54:19.928741,0.18,0.29,1.06,-4.69,0.72,1.01,32.30,67.00,207.33,7.05,319.57
2025-02-14 20:54:20.054684,0.17,0.27,1.08,-3.42,0.13,0.99,32.30,67.00,207.33,7.05,319.60
2025-02-14 20:54:20.173509,0.18,0.28,1.07,-3.56,0.01,0.94,32.30,67.00,207.33,7.05,319.69
2025-02-14 20:54:20.315165,0.18,0.27,1.06,-2.40,-2.00,0.72,32.30,67.00,207.33,7.05,319.70
2025-02-14 20:54:20.441333,0.18,0.26,1.07,-4.21,0.29,1.05,32.30,67.00,207.33,7.05,319.57
2025-02-14 20:54:20.560303,0.18,0.27,1.06,-3.79,-0.04,1.00,32.30,67.00,207.33,7.05,319.70
2025-02-14 20:54:20.695201,0.17,0.28,1.07,-3.92,0.38,0.91,32.30,67.00,207.33,7.05,319.65
2025-02-14 20:54:20.827069,0.17,0.27,1.06,-3.81,-0.04,0.83,32.30,67.00,207.33,7.05,319.45
2025-02-14 20:54:20.952574,0.17,0.28,1.06,-4.53,0.39,0.64,32.30,67.00,207.33,7.05,319.57
2025-02-14 20:54:21.072354,0.18,0.29,1.07,-3.30,-0.44,0.43,32.30,67.00,207.33,7.05,319.63
2025-02-14 20:54:21.216419,0.17,0.28,1.08,-4.49,0.01,0.80,32.30,67.00,207.33,7.05,320.72
2025-02-14 20:54:21.326574,0.17,0.28,1.06,-4.05,0.10,0.82,32.30,67.00,207.33,7.05,320.72
2025-02-14 20:54:21.460665,0.18,0.27,1.07,-4.06,0.09,1.10,32.30,67.00,207.33,7.05,320.60
2025-02-14 20:54:21.573790,0.19,0.28,0.97,-3.08,1.17,0.95,32.30,67.00,207.33,7.05,320.45
2025-02-14 20:54:21.698160,0.18,0.27,1.06,-4.39,-0.49,0.88,32.30,67.00,207.33,7.05,319.62
2025-02-14 20:54:21.823476,0.17,0.28,1.09,-2.56,-2.18,0.70,32.30,67.00,207.33,7.05,319.55
2025-02-14 20:54:21.959016,0.18,0.27,1.06,-4.21,0.09,0.76,32.30,67.00,207.33,7.05,319.60
2025-02-14 20:54:22.077003,0.18,0.27,1.08,-3.34,-0.65,0.79,32.30,67.00,207.33,7.05,319.55
2025-02-14 20:54:22.203236,0.17,0.26,1.07,-3.21,0.89,0.95,32.30,67.00,207.33,7.05,319.60
2025-02-14 20:54:22.343745,0.18,0.27,1.09,-2.69,-1.33,0.63,32.30,67.00,207.33,7.05,319.57
2025-02-14 20:54:22.466063,0.19,0.27,0.98,-6.35,3.42,1.22,32.30,67.00,207.33,7.05,319.67
2025-02-14 20:54:22.578342,0.18,0.24,1.02,-1.60,1.40,0.56,32.30,67.00,207.33,7.05,319.58
2025-02-14 20:54:22.704778,0.19,0.29,1.04,-2.98,0.98,1.01,32.30,67.00,207.33,7.05,319.46
2025-02-14 20:54:22.815692,0.17,0.26,1.08,-3.40,0.35,0.82,32.30,67.00,207.33,7.05,319.43
2025-02-14 20:54:22.944466,0.17,0.27,1.09,-4.68,3.05,1.10,32.30,67.00,207.33,7.05,319.48
2025-02-14 20:54:23.068471,0.18,0.28,1.06,-3.95,0.11,0.79,32.30,67.00,207.33,7.05,319.43
2025-02-14 20:54:23.292477,0.18,0.27,1.05,-3.50,0.22,0.92,32.30,67.00,207.33,7.05,320.65
2025-02-14 20:54:23.426745,0.19,0.28,1.06,-2.31,-0.49,0.56,32.30,67.00,207.33,7.05,320.48
2025-02-14 20:54:23.558724,0.17,0.27,1.07,-4.92,0.63,0.75,32.30,67.00,207.33,7.05,320.52
2025-02-14 20:54:23.682321,0.17,0.27,1.08,-4.34,-0.06,0.68,32.30,67.00,207.33,7.05,320.55
2025-02-14 20:54:23.808374,0.18,0.27,1.02,-6.25,3.15,1.02,32.30,67.00,209.89,7.08,319.50
2025-02-14 20:54:23.939494,0.18,0.27,1.07,-3.25,-0.27,0.74,32.30,67.00,207.33,7.05,319.48
2025-02-14 20:54:24.049620,0.18,0.26,1.08,-3.51,-0.05,1.03,32.30,67.00,207.33,7.08,319.62
2025-02-14 20:54:24.160907,0.17,0.27,1.06,-3.44,-0.05,0.90,32.30,67.00,207.33,7.08,319.55
2025-02-14 20:54:24.289079,0.18,0.28,1.07,-4.39,0.41,0.84,32.30,67.00,209.89,7.08,319.46
2025-02-14 20:54:24.398810,0.18,0.28,1.06,-3.64,0.18,0.66,32.30,67.00,207.33,7.08,319.57
2025-02-14 20:54:24.521239,0.17,0.29,1.10,-3.61,1.25,0.83,32.30,67.00,207.33,7.08,319.58
2025-02-14 20:54:24.638504,0.16,0.27,1.07,-4.11,-0.03,0.63,32.30,67.00,207.33,7.05,319.46
2025-02-14 20:54:24.748580,0.18,0.28,1.07,-4.27,-0.17,0.89,32.30,67.00,207.33,7.05,319.40
2025-02-14 20:54:24.880564,0.18,0.26,1.06,-3.89,0.21,0.82,32.30,67.00,209.89,7.08,319.41
2025-02-14 20:54:24.989883,0.18,0.27,1.06,-3.70,0.18,0.95,32.30,67.00,209.89,7.05,319.38
2025-02-14 20:54:25.096098,0.17,0.27,1.06,-4.00,0.34,0.98,32.30,67.00,209.89,7.05,319.45
2025-02-14 20:54:25.250074,0.18,0.28,1.07,-2.97,-0.89,0.68,32.30,67.00,207.33,7.05,320.54
2025-02-14 20:54:25.362071,0.17,0.27,1.07,-3.55,-0.11,0.74,32.30,67.00,207.33,7.08,320.45
2025-02-14 20:54:25.500680,0.17,0.28,1.06,-4.44,0.44,0.96,32.30,67.00,209.89,7.08,320.52
2025-02-14 20:54:25.613582,0.17,0.28,1.07,-3.95,0.37,0.98,32.30,67.00,207.33,7.05,320.60
2025-02-14 20:54:25.758697,0.18,0.28,1.07,-3.82,-0.20,0.50,32.30,67.00,207.33,7.08,319.33
2025-02-14 20:54:25.877498,0.17,0.27,1.05,-4.32,0.46,0.63,32.30,67.00,209.89,7.08,319.53
2025-02-14 20:54:26.002734,0.16,0.28,1.07,-3.54,-0.20,0.72,32.30,67.00,209.89,7.08,319.52
2025-02-14 20:54:26.133853,0.17,0.28,1.07,-4.21,0.36,0.80,32.30,67.00,209.89,7.08,319.28
2025-02-14 20:54:26.246799,0.18,0.28,0.97,-2.76,0.70,0.74,32.30,67.00,209.89,7.08,319.43
2025-02-14 20:54:26.373449,0.18,0.24,0.90,4.44,-5.90,0.06,32.30,67.00,209.89,7.08,319.50
2025-02-14 20:54:26.507942,0.17,0.28,1.02,-5.50,-0.94,0.70,32.30,67.00,209.89,7.08,319.36
2025-02-14 20:54:26.618647,0.17,0.23,1.06,-2.32,-1.73,0.28,32.30,67.00,207.33,7.05,319.36
2025-02-14 20:54:26.733542,0.18,0.27,1.08,-3.13,-0.35,0.54,32.30,67.00,207.33,7.08,319.40
2025-02-14 20:54:26.879395,0.18,0.28,1.05,-3.91,0.39,0.96,32.30,67.00,209.89,7.08,319.28
2025-02-14 20:54:26.998249,0.18,0.27,1.05,-3.26,-0.47,0.77,32.30,67.00,209.89,7.08,319.31
2025-02-14 20:54:27.116324,0.17,0.28,1.06,-3.34,-0.19,0.74,32.30,67.00,209.89,7.08,319.41
2025-02-14 20:54:27.256986,0.18,0.26,1.09,-3.31,-2.04,0.60,32.30,67.00,209.89,7.08,320.47
2025-02-14 20:54:27.394228,0.19,0.28,1.04,-4.48,0.27,0.86,32.30,67.00,209.89,7.08,320.47
2025-02-14 20:54:27.511850,0.18,0.27,1.06,-3.69,-0.57,0.83,32.30,67.00,209.89,7.08,320.28
2025-02-14 20:54:27.643466,0.18,0.28,1.07,-3.69,0.53,0.93,32.30,67.00,209.89,7.08,320.35
2025-02-14 20:54:27.755357,0.17,0.27,1.07,-2.98,-0.91,0.72,32.30,67.00,209.89,7.08,319.43
2025-02-14 20:54:27.885296,0.18,0.27,1.07,-4.92,0.82,1.15,32.30,67.00,209.89,7.08,319.40
2025-02-14 20:54:28.007639,0.17,0.27,1.08,-3.31,1.88,0.97,32.30,67.00,209.89,7.08,319.31
2025-02-14 20:54:28.139854,0.18,0.26,1.07,-3.52,-0.38,0.81,32.30,67.00,209.89,7.08,319.45
2025-02-14 20:54:28.254530,0.19,0.28,1.04,-2.92,-0.82,0.92,32.30,67.00,209.89,7.08,319.45
2025-02-14 20:54:28.397739,0.19,0.27,1.03,-4.79,2.28,1.03,32.30,67.00,209.89,7.08,319.28
2025-02-14 20:54:28.508214,0.16,0.29,1.19,-9.27,2.74,1.26,32.30,67.00,209.89,7.08,319.23
2025-02-14 20:54:28.643585,0.19,0.29,0.98,-3.80,-1.73,1.10,32.30,67.00,209.89,7.08,319.31
2025-02-14 20:54:28.769094,0.17,0.27,1.07,-4.40,0.37,1.24,32.30,67.00,209.89,7.08,319.36
2025-02-14 20:54:28.878195,0.18,0.27,1.06,-4.31,0.38,0.78,32.30,67.00,209.89,7.08,319.19
2025-02-14 20:54:29.014349,0.18,0.27,1.08,-3.40,-0.22,0.79,32.30,67.00,209.89,7.08,319.31
2025-02-14 20:54:29.140443,0.17,0.27,1.06,-3.69,0.18,0.70,32.30,67.00,209.89,7.08,319.33
2025-02-14 20:54:29.288693,0.18,0.27,1.07,-3.92,-0.11,0.77,32.30,67.00,209.89,7.08,320.45
2025-02-14 20:54:29.411947,0.18,0.29,1.08,-4.40,0.73,0.93,32.30,67.00,209.89,7.08,320.31
2025-02-14 20:54:29.530032,0.17,0.28,1.06,-4.29,0.10,0.80,32.30,67.00,209.89,7.08,320.26
2025-02-14 20:54:29.649606,0.17,0.28,1.02,-6.48,3.95,1.08,32.30,67.00,209.89,7.08,320.33
2025-02-14 20:54:29.788848,0.17,0.27,1.08,-3.35,-0.09,0.53,32.30,67.00,209.89,7.08,319.36
2025-02-14 20:54:29.914003,0.17,0.27,1.05,-3.97,0.23,0.84,32.30,67.00,209.89,7.11,319.28
2025-02-14 20:54:30.022409,0.18,0.29,1.06,-4.11,0.00,1.11,32.30,67.00,209.89,7.11,319.26
2025-02-14 20:54:30.159664,0.18,0.28,1.07,-3.69,0.08,1.07,32.30,67.00,209.89,7.08,319.28
2025-02-14 20:54:30.289294,0.18,0.26,1.05,-3.48,-0.94,0.90,32.30,67.00,209.89,7.11,319.16
2025-02-14 20:54:30.399614,0.19,0.27,1.06,-4.33,-0.73,1.11,32.30,67.00,209.89,7.11,319.26
2025-02-14 20:54:30.537048,0.18,0.27,1.03,-3.28,0.39,1.18,32.30,67.00,209.89,7.08,319.35
2025-02-14 20:54:30.652845,0.18,0.27,1.07,-3.21,-0.40,0.40,32.30,67.00,209.89,7.08,319.24
2025-02-14 20:54:30.789708,0.18,0.28,1.05,-3.72,0.94,0.89,32.30,67.00,209.89,7.11,319.33
2025-02-14 20:54:30.927380,0.15,0.27,1.05,0.01,-5.53,-0.05,32.30,67.00,209.89,7.11,319.24
2025-02-14 20:54:31.061730,0.18,0.28,1.07,-3.74,0.24,0.85,32.30,67.00,209.89,7.11,319.21
2025-02-14 20:54:31.185433,0.18,0.28,1.06,-3.95,-0.40,0.96,32.30,67.00,209.89,7.11,319.28
2025-02-14 20:54:31.294938,0.18,0.28,1.06,-4.11,-0.04,0.81,32.30,67.00,209.89,7.11,320.30
2025-02-14 20:54:31.419871,0.17,0.28,1.07,-1.84,-2.62,0.55,32.30,67.00,209.89,7.11,320.30
2025-02-14 20:54:31.553200,0.17,0.27,1.08,-4.31,0.40,0.92,32.30,67.00,209.89,7.11,320.33
2025-02-14 20:54:31.666977,0.18,0.27,1.06,-3.61,0.11,1.02,32.30,67.00,209.89,7.11,320.16
2025-02-14 20:54:31.795359,0.17,0.26,1.06,-4.30,0.38,1.15,32.30,67.00,209.89,7.11,319.16
2025-02-14 20:54:31.932845,0.22,0.27,0.91,-0.40,-4.17,0.39,32.30,67.00,209.89,7.11,319.29
2025-02-14 20:54:32.063626,0.18,0.28,1.07,-3.75,0.37,0.98,32.30,67.00,209.89,7.11,319.12
2025-02-14 20:54:32.188510,0.18,0.26,1.06,-2.27,-0.59,0.98,32.30,67.00,209.89,7.11,319.16
2025-02-14 20:54:32.298925,0.18,0.27,1.06,-4.81,0.55,1.31,32.30,67.00,209.89,7.11,319.21
2025-02-14 20:54:32.435315,0.17,0.27,1.08,-3.24,-1.54,1.18,32.30,67.00,209.89,7.11,319.11
2025-02-14 20:54:32.548471,0.17,0.26,1.04,-2.52,-3.28,0.74,32.30,67.00,209.89,7.11,319.07
2025-02-14 20:54:32.662215,0.17,0.27,1.12,-1.76,-2.81,0.51,32.30,67.00,209.89,7.11,319.24
2025-02-14 20:54:32.789642,0.18,0.28,1.05,-2.95,-0.70,0.67,32.30,67.00,209.89,7.11,319.18
2025-02-14 20:54:32.914348,0.14,0.22,1.02,-2.25,-3.86,0.11,32.30,67.00,209.89,7.11,319.11
2025-02-14 20:54:33.057956,0.18,0.28,1.07,-3.47,0.43,0.79,32.30,67.00,209.89,7.11,319.21
2025-02-14 20:54:33.185039,0.17,0.26,1.04,-3.08,-0.10,0.66,32.30,67.00,209.89,7.11,319.19
2025-02-14 20:54:33.312818,0.18,0.27,1.07,-3.29,-0.59,0.60,32.30,67.00,209.89,7.11,320.31
2025-02-14 20:54:33.439345,0.18,0.27,1.08,-2.81,-1.13,0.76,32.30,67.00,209.89,7.11,320.16
2025-02-14 20:54:33.582430,0.18,0.27,1.08,-4.24,0.02,0.98,32.30,67.00,209.89,7.11,320.18
2025-02-14 20:54:33.704692,0.16,0.43,0.93,-28.87,-1.50,2.05,32.30,67.00,209.89,7.11,320.26
2025-02-14 20:54:33.830011,0.18,0.27,1.04,-1.77,-1.56,0.97,32.30,67.00,209.89,7.11,319.24
2025-02-14 20:54:33.941138,0.17,0.26,1.05,-2.50,-0.93,0.56,32.30,67.00,209.89,7.11,319.09
2025-02-14 20:54:34.061144,0.17,0.28,1.06,-4.01,-0.17,0.76,32.30,67.00,209.89,7.11,319.24
2025-02-14 20:54:34.185952,0.16,0.27,1.05,-3.30,-0.11,0.79,32.30,67.00,209.89,7.11,319.04
2025-02-14 20:54:34.326724,0.21,0.26,1.01,-3.41,5.57,1.14,32.30,67.00,209.89,7.11,319.18
2025-02-14 20:54:34.438746,0.19,0.28,1.06,-4.01,0.36,1.09,32.30,67.00,209.89,7.11,319.28
2025-02-14 20:54:34.562666,0.17,0.28,1.07,-3.34,0.41,0.83,32.30,67.00,209.89,7.11,319.28
2025-02-14 20:54:34.689361,0.18,0.28,1.07,-3.47,-1.97,0.62,32.30,67.00,209.89,7.11,319.14
2025-02-14 20:54:34.811912,0.17,0.27,1.07,-3.21,0.34,0.83,32.30,67.00,209.89,7.14,319.36
2025-02-14 20:54:34.971056,0.18,0.27,1.08,-3.36,-0.21,0.86,32.30,67.00,209.89,7.11,319.33
2025-02-14 20:54:35.086948,0.18,0.28,1.07,-3.89,0.09,0.92,32.30,67.00,209.89,7.11,319.18
2025-02-14 20:54:35.193830,0.18,0.28,1.06,-3.80,0.41,0.86,32.30,67.00,209.89,7.11,319.28
2025-02-14 20:54:35.328286,0.18,0.28,1.07,-3.74,0.17,0.92,32.30,67.00,209.89,7.14,320.26
2025-02-14 20:54:35.466519,0.18,0.27,1.06,-3.63,-0.87,0.47,32.30,67.00,209.89,7.11,320.28
2025-02-14 20:54:35.578591,0.18,0.25,1.05,-1.64,-0.71,0.35,32.30,67.00,209.89,7.11,320.25
2025-02-14 20:54:35.709447,0.19,0.27,1.07,-3.85,0.05,0.90,32.30,67.00,209.89,7.14,320.23
2025-02-14 20:54:35.825510,0.18,0.27,1.07,-3.95,0.42,1.22,32.30,67.00,212.50,7.14,319.28
2025-02-14 20:54:35.951739,0.17,0.28,1.07,-3.40,0.27,1.05,32.30,67.00,209.89,7.14,319.28
2025-02-14 20:54:36.075555,0.18,0.27,1.07,-3.82,0.25,1.14,32.30,67.00,212.50,7.14,319.19
2025-02-14 20:54:36.210463,0.19,0.29,1.07,-3.68,-0.02,0.69,32.30,67.00,209.89,7.14,319.26
2025-02-14 20:54:36.331945,0.18,0.26,1.07,-3.19,0.66,0.89,32.30,67.00,209.89,7.14,319.24
2025-02-14 20:54:36.452933,0.18,0.28,1.05,-6.60,1.74,1.15,32.30,67.00,209.89,7.14,319.07
2025-02-14 20:54:36.581874,0.17,0.26,1.07,-5.56,1.10,1.01,32.30,67.00,209.89,7.14,318.95
2025-02-14 20:54:36.717343,0.18,0.28,1.05,-4.22,-0.27,1.05,32.30,67.00,212.50,7.14,319.09
2025-02-14 20:54:36.841754,0.18,0.27,1.07,-3.22,0.06,0.69,32.30,67.00,212.50,7.14,319.02
2025-02-14 20:54:36.952943,0.18,0.28,1.06,-4.92,0.88,0.98,32.30,67.00,209.89,7.14,319.11
2025-02-14 20:54:37.092192,0.17,0.27,1.08,-0.66,-1.17,0.76,32.30,67.00,209.89,7.14,319.11
2025-02-14 20:54:37.218001,0.18,0.26,1.08,-7.67,0.05,1.21,32.30,67.00,209.89,7.14,319.86
2025-02-14 20:54:37.375810,0.18,0.27,1.08,-13.11,4.81,1.99,32.30,67.00,212.50,7.14,320.37
2025-02-14 20:54:37.501232,0.18,0.27,1.06,-4.98,0.53,0.89,32.30,67.00,209.89,7.14,319.91
2025-02-14 20:54:37.627056,0.18,0.26,1.06,-3.40,-3.12,0.44,32.30,67.00,209.89,7.14,320.13
2025-02-14 20:54:37.749738,0.17,0.28,1.07,-4.03,1.19,1.58,32.30,67.00,209.89,7.14,320.14
2025-02-14 20:54:37.860724,0.17,0.29,1.06,-3.72,0.02,1.24,32.30,67.00,212.50,7.14,318.92
2025-02-14 20:54:37.974507,0.19,0.27,1.07,-3.91,0.13,0.55,32.30,67.00,209.89,7.14,318.90
2025-02-14 20:54:38.093055,0.19,0.27,1.07,-3.92,0.18,0.95,32.30,67.00,209.89,7.14,319.07
2025-02-14 20:54:38.225617,0.19,0.28,1.07,-3.78,0.30,1.03,32.30,67.00,209.89,7.14,318.94
2025-02-14 20:54:38.358897,0.18,0.26,1.08,-3.51,-0.38,1.11,32.30,67.00,209.89,7.14,318.97
2025-02-14 20:54:38.482544,0.19,0.28,1.04,-3.16,0.11,0.91,32.30,67.00,209.89,7.14,319.06
2025-02-14 20:54:38.610468,0.19,0.27,1.08,-4.24,-0.04,0.76,32.30,67.00,209.89,7.14,318.92
2025-02-14 20:54:38.722407,0.18,0.27,1.07,-3.79,-0.09,0.68,32.30,67.00,212.50,7.14,319.04
2025-02-14 20:54:38.860551,0.18,0.27,1.08,-3.99,0.21,0.95,32.30,67.00,212.50,7.16,319.04
2025-02-14 20:54:38.972109,0.18,0.26,1.07,-3.50,0.26,0.72,32.30,67.00,212.50,7.14,318.94
2025-02-14 20:54:39.095681,0.19,0.27,1.06,-3.64,0.28,0.95,32.30,67.00,212.50,7.14,319.09
2025-02-14 20:54:39.219366,0.18,0.27,1.07,-3.82,0.11,0.90,32.30,67.00,209.89,7.14,319.06
2025-02-14 20:54:39.430062,0.18,0.27,1.07,-3.72,0.07,0.95,32.30,67.00,209.89,7.14,320.14
2025-02-14 20:54:39.539192,0.18,0.28,1.07,-3.87,0.04,0.85,32.30,67.00,209.89,7.14,319.96
2025-02-14 20:54:39.647636,0.18,0.27,1.07,-3.95,0.22,0.79,32.30,67.00,209.89,7.14,319.96
2025-02-14 20:54:39.759528,0.18,0.28,1.07,-3.76,0.17,0.89,32.30,67.00,209.89,7.16,320.06
2025-02-14 20:54:39.867858,0.18,0.28,1.07,-3.83,0.19,0.68,32.30,67.00,209.89,7.14,319.01
2025-02-14 20:54:39.990514,0.18,0.28,1.07,-3.76,0.11,0.81,32.30,67.00,209.89,7.14,318.95
2025-02-14 20:54:40.111548,0.18,0.27,1.07,-3.89,0.24,0.85,32.30,67.00,209.89,7.14,319.01
2025-02-14 20:54:40.241546,0.18,0.28,1.07,-3.69,0.07,0.73,32.30,67.00,209.89,7.14,318.99
2025-02-14 20:54:40.362320,0.18,0.28,1.07,-3.68,0.04,0.80,32.30,67.00,209.89,7.14,318.99
2025-02-14 20:54:40.498635,0.18,0.27,1.07,-4.07,0.11,0.87,32.30,67.00,209.89,7.14,319.11
2025-02-14 20:54:40.613176,0.19,0.27,1.06,-3.85,0.24,1.07,32.30,67.00,212.50,7.14,319.07
2025-02-14 20:54:40.738012,0.18,0.27,1.06,-3.78,0.11,0.99,32.30,67.00,212.50,7.14,318.95
2025-02-14 20:54:40.861632,0.18,0.28,1.07,-3.74,0.08,0.89,32.30,67.00,212.50,7.14,318.99
2025-02-14 20:54:40.986325,0.18,0.27,1.07,-3.90,0.24,0.95,32.30,67.00,212.50,7.14,318.99
2025-02-14 20:54:41.109918,0.18,0.28,1.08,-3.90,0.11,0.88,32.30,67.00,212.50,7.14,318.85
2025-02-14 20:54:41.235123,0.18,0.28,1.07,-4.07,0.11,0.79,32.30,67.00,209.89,7.16,319.04
2025-02-14 20:54:41.443950,0.18,0.27,1.06,-3.84,0.18,0.85,32.30,67.00,212.50,7.14,320.09
2025-02-14 20:54:41.547884,0.19,0.28,1.07,-3.82,0.10,0.76,32.30,67.00,209.89,7.16,320.09
2025-02-14 20:54:41.656333,0.18,0.27,1.07,-4.02,0.05,0.79,32.30,67.00,209.89,7.16,319.99
2025-02-14 20:54:41.764056,0.19,0.27,1.06,-3.76,0.38,0.73,32.30,67.00,209.89,7.16,319.96
2025-02-14 20:54:41.883302,0.18,0.27,1.07,-3.79,0.09,0.85,32.30,67.00,209.89,7.16,319.09
2025-02-14 20:54:42.008407,0.19,0.27,1.07,-3.97,0.07,0.96,32.30,67.00,212.50,7.16,319.09
2025-02-14 20:54:42.134609,0.18,0.27,1.07,-3.85,0.06,0.96,32.30,67.00,212.50,7.16,318.95
2025-02-14 20:54:42.255869,0.18,0.28,1.06,-3.85,0.22,0.86,32.30,67.00,212.50,7.16,319.06
2025-02-14 20:54:42.380376,0.18,0.27,1.06,-3.82,0.12,0.68,32.30,67.00,212.50,7.16,319.09
2025-02-14 20:54:42.506460,0.18,0.28,1.07,-3.82,0.15,0.78,32.30,67.00,212.50,7.16,318.85
2025-02-14 20:54:42.639505,0.18,0.27,1.06,-3.88,-0.15,0.77,32.30,67.00,212.50,7.16,319.01
2025-02-14 20:54:42.766004,0.18,0.27,1.07,-3.87,0.20,0.85,32.30,67.00,212.50,7.16,319.07
2025-02-14 20:54:42.878147,0.18,0.27,1.06,-3.70,0.21,0.69,32.30,67.00,209.89,7.16,318.97
2025-02-14 20:54:43.004661,0.18,0.27,1.07,-3.96,0.25,1.01,32.30,67.00,212.50,7.16,319.06
2025-02-14 20:54:43.141340,0.18,0.27,1.08,-3.81,-0.04,0.87,32.30,67.00,209.89,7.16,318.95
2025-02-14 20:54:43.262425,0.19,0.27,1.07,-3.95,0.32,0.92,32.30,67.00,212.50,7.19,319.01
2025-02-14 20:54:43.470128,0.18,0.27,1.07,-3.90,0.05,0.82,32.30,67.00,212.50,7.16,320.06
2025-02-14 20:54:43.578885,0.18,0.28,1.07,-3.73,0.08,0.93,32.30,67.00,209.89,7.19,320.08
2025-02-14 20:54:43.687527,0.19,0.27,1.06,-3.49,0.03,0.81,32.30,67.00,212.50,7.19,319.99
2025-02-14 20:54:43.796228,0.18,0.27,1.06,-3.58,0.15,0.85,32.30,67.00,209.89,7.19,320.01
2025-02-14 20:54:43.903274,0.18,0.27,1.06,-3.65,0.19,1.08,32.30,67.00,209.89,7.19,318.85
2025-02-14 20:54:44.034109,0.18,0.27,1.06,-3.65,-0.05,0.86,32.30,67.00,212.50,7.19,319.01
2025-02-14 20:54:44.160833,0.18,0.27,1.07,-3.71,0.20,0.90,32.30,67.00,209.89,7.19,318.97
2025-02-14 20:54:44.276472,0.18,0.28,1.07,-3.76,0.14,0.75,32.30,67.00,209.89,7.19,318.97
2025-02-14 20:54:44.401891,0.18,0.27,1.06,-3.84,0.29,0.91,32.30,67.00,212.50,7.19,319.02
2025-02-14 20:54:44.525318,0.18,0.27,1.07,-3.86,0.31,1.04,32.30,67.00,212.50,7.19,318.92
2025-02-14 20:54:44.648675,0.18,0.28,1.07,-3.77,0.02,1.04,32.30,67.00,212.50,7.19,319.06
2025-02-14 20:54:44.774050,0.18,0.27,1.06,-3.79,0.09,0.78,32.30,67.00,212.50,7.19,319.01
2025-02-14 20:54:44.902859,0.17,0.27,1.06,-3.89,-0.02,0.81,32.30,67.00,212.50,7.19,318.92
2025-02-14 20:54:45.035838,0.18,0.28,1.07,-3.85,0.23,0.82,32.30,67.00,212.50,7.19,319.07
2025-02-14 20:54:45.145647,0.18,0.28,1.06,-3.79,0.15,0.71,32.30,67.00,212.50,7.19,319.02
2025-02-14 20:54:45.273111,0.18,0.27,1.07,-3.74,0.13,0.82,32.30,67.00,212.50,7.19,318.92
2025-02-14 20:54:45.482371,0.19,0.28,1.07,-3.75,0.21,0.88,32.30,67.00,212.50,7.19,319.84
2025-02-14 20:54:45.593551,0.18,0.28,1.06,-3.80,0.21,0.83,32.30,67.00,209.89,7.19,319.87
2025-02-14 20:54:45.715867,0.18,0.28,1.06,-3.54,0.23,0.65,32.30,67.00,212.50,7.19,320.03
2025-02-14 20:54:45.823006,0.19,0.28,1.07,-3.63,0.18,0.90,32.30,67.00,209.89,7.19,320.11
2025-02-14 20:54:45.930123,0.18,0.27,1.06,-3.76,0.19,0.85,32.30,67.00,212.50,7.22,318.97
2025-02-14 20:54:46.046457,0.18,0.27,1.07,-3.66,0.29,0.87,32.30,67.00,212.50,7.19,319.04
2025-02-14 20:54:46.170094,0.18,0.27,1.06,-3.83,0.15,0.77,32.30,67.00,212.50,7.22,319.02
2025-02-14 20:54:46.291550,0.17,0.27,1.07,-3.75,0.10,0.95,32.30,67.00,212.50,7.22,318.95
2025-02-14 20:54:46.417922,0.18,0.28,1.06,-3.85,0.36,0.84,32.30,67.00,212.50,7.22,319.01
2025-02-14 20:54:46.542194,0.18,0.27,1.07,-3.72,0.07,0.89,32.30,67.00,212.50,7.22,319.06
2025-02-14 20:54:46.667311,0.18,0.29,1.06,-4.06,0.21,0.82,32.30,67.00,212.50,7.22,318.92
2025-02-14 20:54:46.790450,0.18,0.27,1.06,-3.78,0.07,0.60,32.30,67.00,212.50,7.22,318.99
2025-02-14 20:54:46.914773,0.18,0.28,1.06,-3.76,0.20,0.84,32.30,67.00,212.50,7.22,318.78
2025-02-14 20:54:47.041517,0.18,0.27,1.07,-3.69,0.30,0.76,32.30,67.00,212.50,7.22,318.94
2025-02-14 20:54:47.179323,0.18,0.27,1.07,-3.72,-0.06,0.80,32.30,67.00,212.50,7.22,319.07
2025-02-14 20:54:47.302194,0.18,0.28,1.06,-3.76,0.21,0.88,32.30,67.00,212.50,7.22,318.97
2025-02-14 20:54:47.441059,0.18,0.27,1.07,-3.82,0.21,0.86,32.30,67.00,212.50,7.22,320.04
2025-02-14 20:54:47.565550,0.18,0.27,1.07,-3.76,0.21,0.82,32.30,67.00,212.50,7.19,319.92
2025-02-14 20:54:47.688559,0.18,0.28,1.07,-3.71,0.11,0.75,32.30,67.00,212.50,7.22,320.09
2025-02-14 20:54:47.813174,0.18,0.28,1.07,-3.85,0.05,0.74,32.30,67.00,209.89,7.22,319.92
2025-02-14 20:54:47.936785,0.18,0.27,1.07,-3.76,0.02,0.97,32.30,67.00,212.50,7.22,318.87
2025-02-14 20:54:48.061613,0.18,0.27,1.07,-3.69,0.12,0.79,32.30,67.00,212.50,7.22,319.04
2025-02-14 20:54:48.190176,0.18,0.28,1.07,-3.85,0.18,0.90,32.30,67.00,212.50,7.22,319.01
2025-02-14 20:54:48.310584,0.18,0.28,1.07,-3.86,0.03,0.82,32.30,67.00,212.50,7.22,318.92
2025-02-14 20:54:48.434403,0.18,0.27,1.06,-3.98,0.21,0.75,32.30,67.00,212.50,7.22,319.02
2025-02-14 20:54:48.565245,0.17,0.27,1.07,-3.72,-0.01,0.98,32.30,67.00,212.50,7.22,319.04
2025-02-14 20:54:48.697650,0.18,0.27,1.07,-3.80,0.09,0.92,32.30,67.00,212.50,7.22,318.95
2025-02-14 20:54:48.809229,0.19,0.27,1.07,-3.97,0.24,0.79,32.30,67.00,212.50,7.22,319.06
2025-02-14 20:54:48.934539,0.19,0.27,1.06,-3.81,0.26,0.76,32.30,67.00,212.50,7.22,319.07
2025-02-14 20:54:49.057732,0.18,0.28,1.07,-3.81,0.02,0.85,32.30,67.00,212.50,7.22,318.99
2025-02-14 20:54:49.183177,0.19,0.28,1.06,-3.70,0.19,0.74,32.30,67.00,212.50,7.22,319.06
2025-02-14 20:54:49.319330,0.18,0.28,1.07,-3.92,-0.02,0.74,32.30,67.00,212.50,7.22,318.92
2025-02-14 20:54:49.470259,0.18,0.27,1.06,-3.75,0.17,0.76,32.30,67.00,212.50,7.22,320.08
2025-02-14 20:54:49.584990,0.18,0.27,1.07,-3.93,0.31,0.81,32.30,67.00,212.50,7.25,320.01
2025-02-14 20:54:49.707680,0.18,0.28,1.06,-3.86,0.21,0.76,32.30,67.00,212.50,7.25,319.97
2025-02-14 20:54:49.842565,0.18,0.28,1.07,-3.70,-0.07,0.90,32.30,67.00,212.50,7.25,320.01
2025-02-14 20:54:49.964636,0.18,0.27,1.07,-3.89,0.08,0.76,32.30,67.00,212.50,7.25,318.95
2025-02-14 20:54:50.080480,0.18,0.28,1.06,-3.80,0.25,0.69,32.30,67.00,212.50,7.25,318.94
2025-02-14 20:54:50.206107,0.18,0.27,1.07,-3.86,0.13,0.82,32.30,67.00,212.50,7.25,319.02
2025-02-14 20:54:50.329993,0.19,0.28,1.06,-4.02,0.22,0.81,32.30,67.00,212.50,7.25,318.95
2025-02-14 20:54:50.455637,0.18,0.27,1.06,-3.94,0.06,0.88,32.30,67.00,212.50,7.25,319.07
2025-02-14 20:54:50.580914,0.18,0.28,1.06,-3.85,0.18,0.98,32.30,67.00,212.50,7.25,319.06
2025-02-14 20:54:50.713732,0.18,0.27,1.07,-3.89,-0.02,0.91,32.30,67.00,212.50,7.25,318.85
2025-02-14 20:54:50.836448,0.18,0.28,1.07,-3.73,0.09,0.90,32.30,67.00,212.50,7.25,319.01
2025-02-14 20:54:50.952668,0.18,0.26,1.07,-3.79,0.24,0.77,32.30,67.00,212.50,7.25,319.07
2025-02-14 20:54:51.082573,0.18,0.27,1.06,-3.68,0.05,0.84,32.30,67.00,212.50,7.25,318.97
2025-02-14 20:54:51.245068,0.21,0.09,1.05,-6.75,41.09,2.46,32.30,67.00,212.50,7.25,319.11
2025-02-14 20:54:51.361570,0.16,0.28,1.22,0.92,-7.15,0.53,32.30,67.00,212.50,7.25,319.12
2025-02-14 20:54:51.490819,0.22,0.25,0.82,-2.70,1.51,1.04,32.30,67.00,212.50,7.25,320.16
2025-02-14 20:54:51.611598,0.17,0.27,1.08,-3.38,-0.68,0.79,32.30,67.00,212.50,7.25,319.99
2025-02-14 20:54:51.735875,0.17,0.28,1.07,-3.50,0.32,0.76,32.30,67.00,212.50,7.25,320.04
2025-02-14 20:54:51.861710,0.18,0.28,1.12,-2.02,-1.35,0.81,32.30,67.00,212.50,7.28,320.09
2025-02-14 20:54:51.972935,0.17,0.29,1.11,-2.93,-2.44,0.70,32.30,67.00,212.50,7.25,319.07
2025-02-14 20:54:52.098309,0.15,0.27,1.20,-3.24,-7.27,0.98,32.30,67.00,212.50,7.28,318.87
2025-02-14 20:54:52.237706,0.19,0.27,1.07,-5.99,0.89,0.77,32.30,67.00,212.50,7.28,319.04
2025-02-14 20:54:52.347541,0.18,0.27,1.07,-3.75,0.02,0.89,32.30,67.00,212.50,7.28,318.99
2025-02-14 20:54:52.474520,0.18,0.28,1.06,-3.80,0.30,0.88,32.30,67.00,212.50,7.28,318.89
2025-02-14 20:54:52.600402,0.18,0.26,1.05,-4.56,1.11,0.91,32.30,67.00,212.50,7.28,318.94
2025-02-14 20:54:52.733690,0.17,0.28,1.09,-3.23,-1.29,0.66,32.30,67.00,212.50,7.28,318.95
2025-02-14 20:54:52.855785,0.18,0.29,1.06,-3.92,0.38,0.78,32.30,67.00,212.50,7.28,318.85
2025-02-14 20:54:52.972867,0.17,0.28,1.07,-3.89,0.02,0.76,32.30,67.00,212.50,7.28,318.95
2025-02-14 20:54:53.112441,0.17,0.28,1.06,-3.53,-0.32,0.84,32.30,67.00,212.50,7.28,319.06
2025-02-14 20:54:53.241521,0.17,0.28,1.05,-3.92,0.02,1.02,32.30,67.00,212.50,7.28,318.95
2025-02-14 20:54:53.356418,0.18,0.28,1.06,-3.61,-0.11,0.66,32.30,67.00,212.50,7.28,318.99
2025-02-14 20:54:53.504429,0.18,0.28,1.07,-3.61,0.40,0.72,32.30,67.00,212.50,7.28,320.13
2025-02-14 20:54:53.621338,0.18,0.28,1.08,-3.79,-0.20,0.85,32.30,67.00,212.50,7.28,320.18
2025-02-14 20:54:53.753208,0.18,0.27,1.07,-3.76,0.18,0.69,32.30,67.00,212.50,7.28,319.99
2025-02-14 20:54:53.875809,0.16,0.30,1.07,-4.57,-1.82,0.99,32.30,67.00,212.50,7.28,319.97
2025-02-14 20:54:54.000135,0.18,0.27,1.07,-3.76,0.01,0.62,32.30,67.00,212.50,7.28,319.14
2025-02-14 20:54:54.116514,0.18,0.28,1.06,-3.92,0.82,1.05,32.30,67.00,212.50,7.28,319.01
2025-02-14 20:54:54.243204,0.18,0.27,1.07,-4.01,0.01,0.85,32.30,67.00,212.50,7.28,318.97
2025-02-14 20:54:54.371702,0.18,0.28,1.06,-3.76,0.11,0.84,32.30,67.00,212.50,7.28,319.09
2025-02-14 20:54:54.495409,0.19,0.28,1.04,-3.81,1.13,0.89,32.30,67.00,212.50,7.28,318.99
2025-02-14 20:54:54.618226,0.19,0.26,1.05,-3.69,0.04,0.90,32.30,67.00,212.50,7.28,318.97
2025-02-14 20:54:54.740269,0.19,0.28,1.06,-3.63,0.14,1.03,32.30,67.00,212.50,7.28,318.94
2025-02-14 20:54:54.868046,0.18,0.27,1.06,-3.85,0.18,1.12,32.30,67.00,212.50,7.28,318.92
2025-02-14 20:54:54.992056,0.19,0.27,1.06,-3.83,0.51,0.90,32.30,67.00,212.50,7.28,319.11
2025-02-14 20:54:55.115926,0.19,0.27,1.07,-3.76,0.02,0.82,32.30,67.00,212.50,7.28,319.07
2025-02-14 20:54:55.238443,0.18,0.27,1.06,-4.01,0.06,0.92,32.30,67.00,212.50,7.28,318.92
2025-02-14 20:54:55.366406,0.18,0.27,1.07,-3.85,0.11,0.86,32.30,67.00,212.50,7.28,319.06
2025-02-14 20:54:55.572427,0.19,0.26,1.07,-3.77,0.16,0.76,32.30,67.00,212.50,7.28,320.01
2025-02-14 20:54:55.681752,0.19,0.28,1.05,-3.83,0.71,0.89,32.30,67.00,212.50,7.28,320.11
2025-02-14 20:54:55.788037,0.17,0.28,1.07,-3.92,0.18,1.02,32.30,67.00,212.50,7.28,319.97
2025-02-14 20:54:55.899323,0.18,0.27,1.06,-3.85,0.18,0.91,32.30,67.00,212.50,7.28,320.03
2025-02-14 20:54:56.014455,0.18,0.27,1.07,-3.82,0.03,0.78,32.30,67.00,212.50,7.28,319.14
2025-02-14 20:54:56.139910,0.18,0.28,1.07,-3.77,0.15,0.82,32.30,67.00,212.50,7.28,318.97
2025-02-14 20:54:56.266601,0.19,0.27,1.06,-3.90,0.13,0.93,32.30,67.00,209.89,7.28,318.97
2025-02-14 20:54:56.387401,0.18,0.27,1.07,-3.69,0.19,0.82,32.30,67.00,212.50,7.28,319.12
2025-02-14 20:54:56.510544,0.18,0.28,1.07,-3.48,0.10,0.86,32.30,67.00,212.50,7.28,319.01
2025-02-14 20:54:56.634924,0.18,0.28,1.08,-3.92,0.29,0.84,32.30,67.00,212.50,7.28,318.97
2025-02-14 20:54:56.766332,0.18,0.28,1.07,-3.62,-0.08,0.77,32.30,67.00,212.50,7.28,319.07
2025-02-14 20:54:56.897145,0.18,0.27,1.07,-3.86,0.07,0.73,32.30,67.00,212.50,7.28,319.04
2025-02-14 20:54:57.007553,0.18,0.27,1.07,-3.92,0.15,0.78,32.30,67.00,212.50,7.28,318.82
2025-02-14 20:54:57.132476,0.18,0.27,1.07,-3.76,0.03,0.74,32.30,67.00,212.50,7.28,319.04
2025-02-14 20:54:57.256677,0.18,0.28,1.07,-3.73,0.05,0.84,32.30,67.00,212.50,7.28,318.99
2025-02-14 20:54:57.383944,0.18,0.28,1.06,-3.89,0.32,0.90,32.30,67.00,212.50,7.28,318.90
2025-02-14 20:54:57.590191,0.18,0.27,1.06,-3.83,0.24,0.81,32.30,67.00,212.50,7.28,320.04
2025-02-14 20:54:57.716925,0.18,0.28,1.07,-3.80,-0.10,0.74,32.30,67.00,212.50,7.28,320.08
2025-02-14 20:54:57.827016,0.18,0.27,1.05,-3.37,-0.74,0.91,32.30,67.00,212.50,7.28,320.01
2025-02-14 20:54:57.942895,0.18,0.28,1.07,-3.87,0.07,0.85,32.30,67.00,212.50,7.28,320.01
2025-02-14 20:54:58.048570,0.19,0.28,1.06,-3.80,0.31,0.78,32.30,67.00,212.50,7.25,319.02
2025-02-14 20:54:58.160112,0.18,0.26,1.08,-3.80,0.00,0.82,32.30,67.00,212.50,7.25,319.06
2025-02-14 20:54:58.282399,0.18,0.28,1.08,-3.85,0.08,0.87,32.30,67.00,212.50,7.25,318.94
2025-02-14 20:54:58.415212,0.18,0.27,1.04,-4.16,-0.30,0.92,32.30,67.00,212.50,7.22,318.95
2025-02-14 20:54:58.541684,0.18,0.28,1.07,-3.90,0.15,0.92,32.30,67.00,212.50,7.22,318.84
2025-02-14 20:54:58.663249,0.18,0.28,1.07,-3.70,-0.07,0.86,32.30,67.00,212.50,7.22,318.87
2025-02-14 20:54:58.796833,0.18,0.28,1.08,-4.07,1.67,0.94,32.30,67.00,212.50,7.22,319.09
2025-02-14 20:54:58.902161,0.18,0.27,1.06,-3.71,0.29,0.79,32.30,67.00,212.50,7.22,318.94
2025-02-14 20:54:59.026467,0.18,0.27,1.07,-3.64,0.08,0.62,32.30,67.00,212.50,7.19,318.95
2025-02-14 20:54:59.149732,0.18,0.28,1.05,-3.54,0.42,0.70,32.30,67.00,212.50,7.22,319.02
2025-02-14 20:54:59.275805,0.19,0.28,1.07,-3.92,0.09,0.90,32.30,67.00,212.50,7.22,319.06
2025-02-14 20:54:59.402100,0.18,0.27,1.07,-3.98,0.16,0.81,32.30,67.00,212.50,7.19,318.94
2025-02-14 20:54:59.619248,0.18,0.27,1.07,-3.95,-0.15,0.75,32.30,67.00,212.50,7.22,320.04
2025-02-14 20:54:59.728452,0.18,0.28,1.07,-3.86,0.20,0.66,32.30,67.00,212.50,7.22,320.11
2025-02-14 20:54:59.837299,0.19,0.27,1.06,-3.76,0.22,0.79,32.30,67.00,212.50,7.22,320.13
2025-02-14 20:54:59.944948,0.17,0.27,1.08,-3.76,0.14,0.86,32.30,67.00,212.50,7.22,319.99
2025-02-14 20:55:00.050812,0.18,0.28,1.06,-3.92,0.08,0.86,32.30,67.00,212.50,7.22,318.85
2025-02-14 20:55:00.173937,0.18,0.27,1.07,-3.85,0.13,0.95,32.30,67.00,212.50,7.22,319.06
2025-02-14 20:55:00.300159,0.19,0.27,1.05,-3.77,0.15,0.69,32.30,67.00,212.50,7.25,318.89
2025-02-14 20:55:00.442568,0.17,0.28,1.09,-3.35,-0.60,0.93,32.30,67.00,212.50,7.25,319.04
2025-02-14 20:55:00.557874,0.18,0.27,1.06,-3.97,0.37,0.61,32.30,67.00,212.50,7.25,319.06
2025-02-14 20:55:00.675039,0.18,0.27,1.07,-3.79,0.08,0.75,32.30,67.00,212.50,7.25,318.99
2025-02-14 20:55:00.795882,0.18,0.28,1.06,-3.69,0.17,0.82,32.30,67.00,212.50,7.25,319.09
2025-02-14 20:55:00.924089,0.18,0.28,1.07,-3.82,0.19,1.06,32.30,67.00,212.50,7.25,318.95
2025-02-14 20:55:01.055430,0.18,0.27,1.06,-4.05,-0.03,0.80,32.30,67.00,212.50,7.25,318.97
2025-02-14 20:55:01.177051,0.18,0.27,1.06,-3.79,0.02,0.87,32.30,67.00,215.17,7.25,319.06
2025-02-14 20:55:01.312864,0.18,0.28,1.08,-3.79,-0.04,0.79,32.30,67.00,212.50,7.28,319.04
2025-02-14 20:55:01.426894,0.18,0.27,1.06,-3.60,0.30,0.75,32.30,67.00,215.17,7.28,318.99
2025-02-14 20:55:01.631107,0.18,0.27,1.04,-4.40,0.18,1.02,32.30,67.00,212.50,7.25,319.89
2025-02-14 20:55:01.739557,0.18,0.27,1.07,-3.66,0.01,0.77,32.30,67.00,212.50,7.28,319.97
2025-02-14 20:55:01.849318,0.18,0.28,1.07,-3.80,0.05,0.74,32.30,67.00,212.50,7.28,320.03
2025-02-14 20:55:01.962099,0.18,0.27,1.06,-3.97,0.02,0.93,32.30,67.00,212.50,7.28,320.01
2025-02-14 20:55:02.071549,0.18,0.28,1.06,-3.92,0.18,0.83,32.30,67.00,212.50,7.28,318.95
2025-02-14 20:55:02.205687,0.18,0.27,1.07,-3.86,0.19,0.86,32.30,67.00,212.50,7.28,319.04
2025-02-14 20:55:02.316110,0.18,0.27,1.06,-3.66,0.21,0.68,32.30,67.00,212.50,7.28,319.06
2025-02-14 20:55:02.445182,0.18,0.27,1.06,-3.79,0.08,0.69,32.30,67.00,212.50,7.28,318.94
2025-02-14 20:55:02.570683,0.17,0.27,1.06,-4.17,0.15,0.69,32.30,67.00,212.50,7.28,319.06
2025-02-14 20:55:02.689523,0.18,0.27,1.06,-3.75,0.20,0.67,32.30,67.00,212.50,7.28,319.02
2025-02-14 20:55:02.813821,0.18,0.28,1.06,-3.77,0.42,0.82,32.30,67.00,215.17,7.28,318.94
2025-02-14 20:55:02.943231,0.18,0.26,1.06,-3.92,0.18,0.87,32.30,67.00,215.17,7.28,318.97
2025-02-14 20:55:03.069607,0.18,0.27,1.07,-3.82,0.43,0.95,32.30,67.00,212.50,7.28,319.02
2025-02-14 20:55:03.190469,0.18,0.28,1.06,-3.82,0.06,0.92,32.30,67.00,212.50,7.28,318.84
2025-02-14 20:55:03.316103,0.18,0.28,1.06,-3.70,0.08,0.66,32.30,67.00,212.50,7.28,319.02
2025-02-14 20:55:03.441285,0.19,0.28,1.07,-3.75,0.12,0.68,32.30,67.00,215.17,7.31,318.87
2025-02-14 20:55:03.653462,0.18,0.27,1.07,-3.83,-0.02,0.67,32.30,67.00,212.50,7.28,320.08
2025-02-14 20:55:03.759102,0.18,0.28,1.07,-3.95,-0.12,0.84,32.30,67.00,212.50,7.31,319.94
2025-02-14 20:55:03.868149,0.18,0.27,1.06,-3.73,-0.02,1.04,32.30,67.00,212.50,7.31,320.04
2025-02-14 20:55:03.992769,0.18,0.28,1.06,-4.02,0.02,0.82,32.30,67.00,212.50,7.31,319.97
2025-02-14 20:55:04.103790,0.18,0.27,1.07,-3.74,0.01,0.66,32.30,67.00,212.50,7.31,318.82
2025-02-14 20:55:04.211222,0.18,0.27,1.06,-3.76,0.07,0.79,32.30,67.00,212.50,7.31,318.92
2025-02-14 20:55:04.340012,0.18,0.29,1.06,-3.94,0.33,0.94,32.30,67.00,215.17,7.31,318.95
2025-02-14 20:55:04.461632,0.18,0.28,1.06,-3.82,-0.15,0.64,32.30,67.00,215.17,7.31,318.87
2025-02-14 20:55:04.599705,0.18,0.27,1.07,-3.73,0.06,0.78,32.30,67.00,212.50,7.31,318.97
2025-02-14 20:55:04.709516,0.17,0.28,1.07,-4.00,0.21,0.95,32.30,67.00,212.50,7.31,318.97
2025-02-14 20:55:04.844393,0.18,0.27,1.07,-3.79,-0.12,0.79,32.30,67.00,215.17,7.31,318.82
2025-02-14 20:55:04.972436,0.18,0.27,1.06,-4.07,0.17,0.92,32.30,67.00,215.17,7.31,318.94
2025-02-14 20:55:05.086573,0.18,0.28,1.06,-3.85,0.18,0.69,32.30,67.00,212.50,7.31,318.95
2025-02-14 20:55:05.211762,0.18,0.27,1.07,-3.92,0.13,0.88,32.30,67.00,212.50,7.31,318.82
2025-02-14 20:55:05.333488,0.18,0.28,1.06,-3.80,0.06,0.86,32.30,67.00,215.17,7.31,318.94
2025-02-14 20:55:05.460460,0.18,0.27,1.07,-3.87,0.21,0.92,32.30,67.00,215.17,7.34,318.92
2025-02-14 20:55:05.668829,0.18,0.28,1.07,-3.76,0.23,0.72,32.30,67.00,215.17,7.34,319.89
2025-02-14 20:55:05.775298,0.18,0.28,1.07,-3.98,0.14,0.97,32.30,67.00,212.50,7.34,319.77
2025-02-14 20:55:05.882699,0.18,0.27,1.07,-3.85,0.15,1.05,32.30,67.00,212.50,7.34,319.97
2025-02-14 20:55:05.993470,0.18,0.27,1.06,-3.93,0.23,0.84,32.30,67.00,212.50,7.34,320.03
2025-02-14 20:55:06.115523,0.19,0.28,1.08,-3.77,-0.02,0.85,32.30,67.00,215.17,7.34,318.84
2025-02-14 20:55:06.239890,0.19,0.27,1.06,-4.34,0.31,0.75,32.30,67.00,212.50,7.34,318.80
2025-02-14 20:55:06.368246,0.18,0.28,1.07,-3.85,-0.07,0.87,32.30,67.00,215.17,7.34,318.95
2025-02-14 20:55:06.479510,0.18,0.28,1.06,-4.04,-0.04,0.76,32.30,67.00,215.17,7.34,318.89
2025-02-14 20:55:06.616055,0.18,0.27,1.08,-3.91,0.25,0.71,32.30,67.00,215.17,7.34,319.01
2025-02-14 20:55:06.727419,0.18,0.28,1.06,-3.85,0.21,0.90,32.30,67.00,215.17,7.34,318.97
2025-02-14 20:55:06.854674,0.18,0.28,1.07,-3.73,0.31,0.79,32.30,67.00,215.17,7.34,318.87
2025-02-14 20:55:06.981513,0.18,0.28,1.07,-3.69,0.02,0.87,32.30,67.00,215.17,7.34,318.99
2025-02-14 20:55:07.105498,0.18,0.27,1.07,-3.76,0.18,0.78,32.30,67.00,212.50,7.37,318.94
2025-02-14 20:55:07.229543,0.18,0.27,1.06,-3.81,0.01,0.88,32.30,67.00,212.50,7.34,318.73
2025-02-14 20:55:07.355195,0.18,0.28,1.07,-3.92,0.42,1.00,32.30,67.00,212.50,7.37,318.97
2025-02-14 20:55:07.479558,0.18,0.27,1.06,-3.88,0.06,0.73,32.30,67.00,215.17,7.37,318.99
2025-02-14 20:55:07.686054,0.18,0.27,1.07,-4.06,0.12,0.82,32.30,67.00,215.17,7.34,319.97
2025-02-14 20:55:07.796192,0.18,0.28,1.07,-3.98,0.39,0.85,32.30,67.00,212.50,7.37,319.80
2025-02-14 20:55:07.907098,0.18,0.27,1.07,-3.79,0.09,0.90,32.30,67.00,212.50,7.37,319.84
2025-02-14 20:55:08.017953,0.18,0.28,1.06,-3.68,0.21,0.96,32.30,67.00,212.50,7.37,319.94
2025-02-14 20:55:08.127551,0.18,0.28,1.07,-3.67,0.11,0.95,32.30,67.00,215.17,7.37,319.01
2025-02-14 20:55:08.247040,0.18,0.28,1.06,-3.82,0.09,0.82,32.30,67.00,212.50,7.37,318.90
2025-02-14 20:55:08.377429,0.18,0.27,1.06,-3.83,0.27,0.82,32.30,67.00,212.50,7.34,318.85
2025-02-14 20:55:08.501093,0.18,0.27,1.07,-3.89,0.21,0.79,32.30,67.00,212.50,7.37,318.80
2025-02-14 20:55:08.620920,0.19,0.28,1.06,-3.84,0.09,0.92,32.30,67.00,215.17,7.37,318.84
2025-02-14 20:55:08.746849,0.19,0.28,1.07,-3.83,0.05,0.91,32.30,67.00,215.17,7.37,318.99
2025-02-14 20:55:08.868880,0.18,0.28,1.08,-3.88,0.24,0.98,32.30,67.00,212.50,7.37,318.85
2025-02-14 20:55:09.003371,0.18,0.28,1.07,-3.76,-0.04,0.73,32.30,67.00,215.17,7.37,318.85
2025-02-14 20:55:09.139222,0.18,0.27,1.07,-3.88,0.24,0.78,32.30,67.00,215.17,7.37,318.95
2025-02-14 20:55:09.245020,0.19,0.27,1.06,-3.88,0.13,0.89,32.30,67.00,212.50,7.37,318.87
2025-02-14 20:55:09.372732,0.18,0.28,1.06,-3.80,0.12,0.89,32.30,67.00,215.17,7.37,318.87
2025-02-14 20:55:09.493559,0.18,0.28,1.06,-3.91,0.05,1.01,32.30,67.00,212.50,7.37,318.94
2025-02-14 20:55:09.697816,0.18,0.28,1.07,-3.84,0.15,0.72,32.30,67.00,215.17,7.37,320.01
2025-02-14 20:55:09.802466,0.17,0.28,1.07,-3.85,0.32,0.79,32.30,67.00,212.50,7.37,319.96
2025-02-14 20:55:09.910581,0.18,0.27,1.06,-3.69,0.02,0.76,32.30,67.00,212.50,7.37,319.87
2025-02-14 20:55:10.020015,0.18,0.27,1.07,-3.98,0.15,0.73,32.30,67.00,215.17,7.37,319.96
2025-02-14 20:55:10.144994,0.18,0.27,1.07,-4.00,0.15,0.87,32.30,67.00,215.17,7.40,318.99
2025-02-14 20:55:10.271226,0.18,0.27,1.06,-3.88,0.19,0.92,32.30,67.00,215.17,7.37,318.89
2025-02-14 20:55:10.395179,0.18,0.28,1.08,-3.75,0.07,0.85,32.30,67.00,212.50,7.40,318.97
2025-02-14 20:55:10.518673,0.18,0.27,1.06,-3.79,0.30,0.87,32.30,67.00,215.17,7.37,318.99
2025-02-14 20:55:10.641284,0.18,0.28,1.07,-3.80,0.21,0.82,32.30,67.00,212.50,7.40,318.85
2025-02-14 20:55:10.763101,0.18,0.27,1.07,-3.86,0.12,0.83,32.30,67.00,215.17,7.40,318.94
2025-02-14 20:55:10.886273,0.18,0.28,1.08,-3.71,0.05,0.89,32.30,67.00,212.50,7.40,318.97
2025-02-14 20:55:11.017088,0.18,0.27,1.07,-3.85,0.17,0.92,32.30,67.00,212.50,7.37,318.87
2025-02-14 20:55:11.137812,0.18,0.28,1.07,-3.70,0.16,0.76,32.30,67.00,215.17,7.37,318.85
2025-02-14 20:55:11.261214,0.19,0.27,1.06,-3.83,0.04,0.95,32.30,67.00,215.17,7.40,318.94
2025-02-14 20:55:11.390532,0.18,0.27,1.07,-3.75,0.08,0.94,32.30,67.00,215.17,7.37,318.87
2025-02-14 20:55:11.515164,0.18,0.28,1.06,-3.82,0.14,0.81,32.30,67.00,212.50,7.40,318.95
2025-02-14 20:55:11.720391,0.18,0.27,1.06,-3.79,0.22,0.97,32.30,67.00,215.17,7.40,319.94
2025-02-14 20:55:11.824666,0.18,0.28,1.07,-3.82,0.19,0.79,32.30,67.00,212.50,7.40,319.97
2025-02-14 20:55:11.930625,0.18,0.27,1.07,-3.65,0.18,0.96,32.30,67.00,212.50,7.40,319.87
2025-02-14 20:55:12.040686,0.18,0.28,1.07,-3.72,0.03,0.82,32.30,67.00,215.17,7.40,319.92
2025-02-14 20:55:12.161619,0.18,0.28,1.06,-3.85,0.09,0.79,32.30,67.00,215.17,7.40,319.01
2025-02-14 20:55:12.286158,0.19,0.27,1.07,-3.79,0.21,0.82,32.30,67.00,215.17,7.40,318.99
2025-02-14 20:55:12.412763,0.18,0.28,1.06,-3.94,0.11,0.67,32.30,67.00,215.17,7.40,318.89
2025-02-14 20:55:12.535963,0.19,0.28,1.06,-3.89,0.16,0.85,32.30,67.00,215.17,7.40,318.95
2025-02-14 20:55:12.661745,0.18,0.27,1.07,-3.88,0.02,0.89,32.30,67.00,215.17,7.40,318.92
2025-02-14 20:55:12.782523,0.17,0.28,1.07,-3.85,0.19,0.96,32.30,67.00,215.17,7.40,318.89
2025-02-14 20:55:12.912687,0.18,0.28,1.07,-3.76,0.08,0.82,32.30,67.00,212.50,7.40,318.94
2025-02-14 20:55:13.038870,0.18,0.27,1.06,-3.87,0.08,0.83,32.30,67.00,215.17,7.40,318.97
2025-02-14 20:55:13.160454,0.18,0.27,1.08,-3.85,0.21,0.84,32.30,67.00,215.17,7.40,318.85
2025-02-14 20:55:13.279038,0.18,0.28,1.06,-3.89,0.31,0.94,32.30,67.00,215.17,7.40,318.95
2025-02-14 20:55:13.409862,0.18,0.28,1.07,-3.66,0.13,0.89,32.30,67.00,215.17,7.40,318.99
2025-02-14 20:55:13.533819,0.18,0.28,1.06,-3.67,0.15,0.79,32.30,67.00,215.17,7.40,318.80
2025-02-14 20:55:13.739702,0.19,0.28,1.07,-3.82,0.15,0.73,32.30,67.00,212.50,7.40,319.82
2025-02-14 20:55:13.853856,0.18,0.27,1.07,-3.84,0.14,0.95,32.30,67.00,215.17,7.40,319.99
2025-02-14 20:55:13.963432,0.18,0.28,1.06,-3.75,0.18,0.79,32.30,67.00,215.17,7.43,319.94
2025-02-14 20:55:14.071031,0.18,0.28,1.07,-4.01,0.08,0.79,32.30,67.00,212.50,7.43,319.92
2025-02-14 20:55:14.181644,0.18,0.27,1.06,-3.75,0.15,0.86,32.30,67.00,215.17,7.40,318.82
2025-02-14 20:55:14.307253,0.18,0.27,1.07,-3.68,0.05,0.89,32.30,67.00,215.17,7.43,318.95
2025-02-14 20:55:14.428591,0.17,0.28,1.07,-3.89,0.23,0.98,32.30,67.00,215.17,7.43,318.87
2025-02-14 20:55:14.557751,0.18,0.27,1.07,-3.76,0.02,0.76,32.30,67.00,215.17,7.43,319.01
2025-02-14 20:55:14.690749,0.18,0.27,1.06,-3.92,-0.02,1.02,32.30,67.00,215.17,7.43,318.99
2025-02-14 20:55:14.813306,0.18,0.27,1.07,-3.74,0.28,0.86,32.30,67.00,215.17,7.43,318.89
2025-02-14 20:55:14.928767,0.18,0.28,1.07,-3.89,0.05,0.98,32.30,67.00,215.17,7.43,318.95
2025-02-14 20:55:15.052786,0.18,0.27,1.06,-3.96,0.11,0.84,32.30,67.00,215.17,7.40,318.92
2025-02-14 20:55:15.193836,0.18,0.27,1.07,-3.73,-0.02,0.98,32.30,67.00,215.17,7.37,318.87
2025-02-14 20:55:15.317450,0.18,0.27,1.06,-3.77,0.24,0.88,32.30,67.00,215.17,7.34,318.95
2025-02-14 20:55:15.428212,0.18,0.27,1.07,-3.77,0.15,0.75,32.30,67.00,215.17,7.34,318.95
2025-02-14 20:55:15.550337,0.18,0.28,1.07,-3.58,0.10,0.67,32.30,67.00,212.50,7.31,318.85
2025-02-14 20:55:15.763394,0.18,0.27,1.07,-3.82,-0.02,1.02,32.30,67.00,212.50,7.31,319.94
2025-02-14 20:55:15.874573,0.18,0.28,1.07,-3.78,0.31,0.82,32.30,67.00,212.50,7.31,319.89
2025-02-14 20:55:15.986561,0.18,0.27,1.07,-3.89,0.13,0.91,32.30,67.00,212.50,7.31,319.97
2025-02-14 20:55:16.098303,0.18,0.28,1.06,-4.02,0.22,0.85,32.30,67.00,215.17,7.31,320.03
2025-02-14 20:55:16.211457,0.17,0.28,1.07,-3.75,0.30,0.90,32.30,67.00,215.17,7.31,318.90
2025-02-14 20:55:16.325937,0.19,0.28,1.07,-3.76,0.02,0.87,32.30,67.00,215.17,7.31,318.95
2025-02-14 20:55:16.449133,0.18,0.28,1.07,-3.94,0.21,0.97,32.30,67.00,215.17,7.34,318.97
2025-02-14 20:55:16.584325,0.18,0.27,1.06,-3.72,-0.05,0.90,32.30,67.00,215.17,7.34,318.78
2025-02-14 20:55:16.702033,0.18,0.28,1.07,-3.95,0.17,0.95,32.30,67.00,215.17,7.34,318.90
2025-02-14 20:55:16.818889,0.18,0.29,1.08,-4.24,0.37,0.82,32.30,67.00,212.50,7.34,318.90
2025-02-14 20:55:16.947849,0.18,0.27,1.06,-3.66,0.23,0.98,32.30,67.00,215.17,7.34,318.82
2025-02-14 20:55:17.058300,0.18,0.28,1.07,-3.68,0.02,0.73,32.30,67.00,212.50,7.34,19.60
2025-02-14 20:55:17.179553,0.18,0.27,1.06,-3.81,0.44,0.98,32.30,67.00,215.17,7.34,318.89
2025-02-14 20:55:17.287893,0.18,0.27,1.07,-3.82,0.03,0.88,32.30,67.00,215.17,7.34,25.02
2025-02-14 20:55:17.397267,0.17,0.27,1.07,-3.86,0.41,1.00,32.30,67.00,215.17,7.37,6.85
2025-02-14 20:55:17.509313,0.18,0.27,1.07,-3.89,0.11,0.80,32.30,67.00,212.50,7.37,7.46
2025-02-14 20:55:17.618381,0.17,0.27,1.06,-3.64,0.31,0.96,32.30,67.00,215.17,7.37,11.54
2025-02-14 20:55:17.729093,0.19,0.27,1.06,-4.00,0.21,0.77,32.30,67.00,212.50,7.37,8.23
2025-02-14 20:55:17.837366,0.18,0.27,1.06,-3.82,0.13,1.04,32.30,67.00,215.17,7.37,6.14
2025-02-14 20:55:17.947372,0.18,0.28,1.07,-3.92,0.10,0.80,32.30,67.00,215.17,7.37,6.83
2025-02-14 20:55:18.054160,0.18,0.27,1.06,-3.75,0.11,0.90,32.30,67.00,212.50,7.37,14.26
2025-02-14 20:55:18.163967,0.18,0.28,1.07,-3.91,0.17,0.89,32.30,67.00,212.50,7.37,8.11
2025-02-14 20:55:18.274279,0.19,0.27,1.07,-3.63,0.31,0.92,32.30,67.00,215.17,7.37,5.93
2025-02-14 20:55:18.383986,0.18,0.27,1.07,-3.85,0.27,0.81,32.30,67.00,215.17,7.40,5.95
2025-02-14 20:55:18.496370,0.18,0.28,1.05,-3.86,0.15,0.79,32.30,67.00,215.17,7.37,6.21
2025-02-14 20:55:18.607907,0.18,0.28,1.07,-3.77,0.11,0.75,32.30,67.00,215.17,7.40,5.90
2025-02-14 20:55:18.715397,0.18,0.28,1.06,-3.69,0.21,0.67,32.30,67.00,215.17,7.37,6.34
2025-02-14 20:55:18.833034,0.18,0.27,1.07,-3.85,-0.03,0.87,32.30,67.00,215.17,7.37,5.95
2025-02-14 20:55:18.958969,0.19,0.29,1.07,-3.73,0.32,0.89,32.30,67.00,215.17,7.40,319.21
2025-02-14 20:55:19.068608,0.18,0.28,1.06,-3.96,0.10,0.79,32.30,67.00,215.17,7.37,6.19
2025-02-14 20:55:19.178388,0.18,0.28,1.06,-3.88,0.21,0.75,32.30,67.00,215.17,7.40,6.21
2025-02-14 20:55:19.290688,0.18,0.28,1.07,-3.82,0.08,0.95,32.30,67.00,215.17,7.40,6.19
2025-02-14 20:55:19.399391,0.18,0.27,1.07,-3.78,0.21,0.93,32.30,67.00,215.17,7.40,5.83
2025-02-14 20:55:19.510266,0.18,0.27,1.07,-3.94,0.25,0.87,32.30,67.00,215.17,7.40,5.93
2025-02-14 20:55:19.619958,0.18,0.28,1.07,-3.82,0.10,0.89,32.30,67.00,215.17,7.40,6.09
2025-02-14 20:55:19.725162,0.18,0.28,1.06,-3.69,0.08,0.89,32.30,67.00,215.17,7.40,7.12
2025-02-14 20:55:19.828861,0.18,0.28,1.06,-3.98,0.05,0.56,32.30,67.00,215.17,7.40,6.22
2025-02-14 20:55:19.932986,0.18,0.28,1.06,-3.93,0.00,0.87,32.30,67.00,215.17,7.40,6.24
2025-02-14 20:55:20.045487,0.18,0.28,1.06,-3.87,0.23,0.92,32.30,67.00,215.17,7.40,6.10
2025-02-14 20:55:20.155277,0.18,0.27,1.06,-3.97,0.19,0.92,32.30,67.00,212.50,7.40,5.95
2025-02-14 20:55:20.262494,0.18,0.28,1.07,-3.83,0.24,0.74,32.30,67.00,215.17,7.40,7.00
2025-02-14 20:55:20.372053,0.18,0.27,1.07,-3.99,0.08,1.02,32.30,67.00,215.17,7.40,5.95
2025-02-14 20:55:20.478377,0.19,0.27,1.06,-3.81,0.27,0.85,32.30,67.00,215.17,7.40,6.22
2025-02-14 20:55:20.589358,0.18,0.28,1.06,-3.67,0.18,0.93,32.30,67.00,215.17,7.43,6.21
2025-02-14 20:55:20.693897,0.18,0.28,1.07,-3.80,0.16,0.83,32.30,67.00,215.17,7.40,6.10
2025-02-14 20:55:20.797643,0.18,0.28,1.06,-3.91,0.12,0.83,32.30,67.00,215.17,7.40,6.22
2025-02-14 20:55:20.903376,0.18,0.28,1.07,-3.95,0.18,0.96,32.30,67.00,215.17,7.43,6.21
2025-02-14 20:55:21.014473,0.18,0.28,1.07,-3.76,0.11,0.69,32.30,67.00,215.17,7.43,6.07
2025-02-14 20:55:21.124911,0.18,0.27,1.06,-3.77,0.14,0.92,32.30,67.00,215.17,7.43,7.94
2025-02-14 20:55:21.235922,0.18,0.28,1.07,-3.74,0.17,0.91,32.30,67.00,215.17,7.43,9.06
2025-02-14 20:55:21.346197,0.18,0.27,1.07,-3.86,0.05,0.86,32.30,67.00,215.17,7.43,5.93
2025-02-14 20:55:21.456369,0.18,0.28,1.07,-3.72,0.24,0.90,32.30,67.00,215.17,7.43,319.26
2025-02-14 20:55:21.566328,0.18,0.28,1.06,-3.79,0.21,0.69,32.30,67.00,215.17,7.43,319.04
2025-02-14 20:55:21.670612,0.18,0.27,1.07,-3.78,0.11,0.94,32.30,67.00,215.17,7.43,319.16
2025-02-14 20:55:21.775653,0.18,0.28,1.06,-3.65,0.14,0.83,32.30,67.00,215.17,7.43,319.12
2025-02-14 20:55:21.914354,0.18,0.27,1.06,-3.84,-0.01,0.66,32.30,67.00,215.17,7.43,6.53
2025-02-14 20:55:22.047951,0.18,0.28,1.07,-3.94,0.20,0.77,32.30,67.00,215.17,7.43,319.97
2025-02-14 20:55:22.162101,0.18,0.28,1.06,-3.47,0.31,0.74,32.30,67.00,215.17,7.43,320.08
2025-02-14 20:55:22.283961,0.18,0.28,1.07,-4.15,0.46,1.05,32.30,67.00,215.17,7.43,320.09
2025-02-14 20:55:22.407739,0.19,0.28,1.06,-3.77,0.35,0.75,32.30,67.00,215.17,7.43,318.97
2025-02-14 20:55:22.532587,0.18,0.29,1.07,-3.27,0.07,0.81,32.30,67.00,215.17,7.43,319.06
2025-02-14 20:55:22.666216,0.18,0.28,1.07,-3.59,-0.13,0.95,32.30,67.00,215.17,7.43,319.02
2025-02-14 20:55:22.791030,0.18,0.27,1.06,-3.95,0.27,0.98,32.30,67.00,215.17,7.46,318.90
2025-02-14 20:55:22.904061,0.18,0.28,1.07,-4.27,0.10,0.92,32.30,67.00,215.17,7.43,318.99
2025-02-14 20:55:23.032983,0.17,0.28,1.07,-3.89,0.15,1.09,32.30,67.00,212.50,7.46,318.95
2025-02-14 20:55:23.155861,0.18,0.28,1.07,-3.60,0.31,0.93,32.30,67.00,215.17,7.46,318.87
2025-02-14 20:55:23.278190,0.18,0.27,1.06,-4.27,0.59,1.18,32.30,67.00,215.17,7.46,318.94
2025-02-14 20:55:23.419015,0.18,0.27,1.07,-3.56,-0.10,0.75,32.30,67.00,215.17,7.46,318.89
2025-02-14 20:55:23.540994,0.18,0.28,1.05,-3.72,0.18,1.02,32.30,67.00,215.17,7.46,318.89
2025-02-14 20:55:23.649904,0.18,0.28,1.07,-6.19,1.76,1.30,32.30,67.00,215.17,7.46,318.99
2025-02-14 20:55:23.777775,0.18,0.28,1.06,-2.69,-0.24,0.52,32.30,67.00,212.50,7.46,318.90
2025-02-14 20:55:23.901114,0.18,0.28,1.07,-3.11,-0.65,0.78,32.30,67.00,215.17,7.46,318.89
2025-02-14 20:55:24.046384,0.18,0.27,1.06,-3.06,0.62,0.82,32.30,67.00,215.17,7.46,6.10
2025-02-14 20:55:24.156944,0.18,0.27,1.06,-3.56,0.13,1.08,32.30,67.00,215.17,7.46,4.59
2025-02-14 20:55:24.264012,0.18,0.28,1.07,-3.84,0.17,0.67,32.30,67.00,212.50,7.46,6.04
2025-02-14 20:55:24.373808,0.18,0.27,1.06,-3.66,0.19,0.84,32.30,67.00,215.17,7.46,11.24
2025-02-14 20:55:24.483018,0.18,0.28,1.07,-3.82,0.07,0.70,32.30,67.00,212.50,7.46,12.19
2025-02-14 20:55:24.593877,0.18,0.28,1.07,-3.73,0.20,0.85,32.30,67.00,215.17,7.46,22.37
2025-02-14 20:55:24.700396,0.18,0.27,1.06,-3.71,0.43,0.82,32.30,67.00,215.17,7.46,318.94
2025-02-14 20:55:24.811316,0.18,0.28,1.06,-3.84,0.15,0.78,32.30,67.00,215.17,7.49,318.94
2025-02-14 20:55:24.917211,0.18,0.27,1.06,-3.75,0.18,0.61,32.30,67.00,215.17,7.49,36.47
2025-02-14 20:55:25.031564,0.18,0.27,1.06,-3.95,0.04,0.92,32.30,67.00,215.17,7.46,37.11
2025-02-14 20:55:25.155942,0.18,0.28,1.06,-3.89,0.21,0.85,32.30,67.00,215.17,7.49,318.90
2025-02-14 20:55:25.280117,0.18,0.28,1.07,-4.05,0.11,0.92,32.30,67.00,215.17,7.46,318.95
2025-02-14 20:55:25.406766,0.18,0.27,1.05,-3.97,0.29,0.95,32.30,67.00,215.17,7.46,318.99
2025-02-14 20:55:25.529865,0.18,0.27,1.07,-3.67,0.18,0.91,32.30,67.00,215.17,7.46,318.89
2025-02-14 20:55:25.653335,0.18,0.27,1.06,-3.84,0.20,0.82,32.30,67.00,215.17,7.46,318.95
2025-02-14 20:55:25.773286,0.18,0.28,1.07,-3.78,0.21,0.77,32.30,67.00,215.17,7.49,318.92
2025-02-14 20:55:25.900489,0.18,0.28,1.06,-3.97,0.05,0.90,32.30,67.00,215.17,7.49,318.77
2025-02-14 20:55:26.026414,0.18,0.28,1.06,-3.80,0.02,0.91,32.30,67.00,215.17,7.46,318.90
2025-02-14 20:55:26.232134,0.18,0.27,1.07,-3.48,0.15,0.91,32.30,67.00,215.17,7.49,319.96
2025-02-14 20:55:26.339959,0.19,0.27,1.07,-3.59,0.27,0.96,32.30,67.00,215.17,7.49,319.94
2025-02-14 20:55:26.447375,0.18,0.28,1.06,-3.79,0.34,0.82,32.30,67.00,215.17,7.49,319.84
2025-02-14 20:55:26.554799,0.18,0.28,1.07,-3.80,0.26,0.81,32.30,67.00,215.17,7.49,319.87
2025-02-14 20:55:26.669781,0.18,0.27,1.07,-3.92,0.09,0.74,32.30,67.00,215.17,7.49,318.94
2025-02-14 20:55:26.799552,0.18,0.28,1.06,-3.98,0.22,0.92,32.30,67.00,215.17,7.49,318.78
2025-02-14 20:55:26.925871,0.18,0.28,1.07,-3.98,-0.02,0.77,32.30,67.00,215.17,7.49,318.75
2025-02-14 20:55:27.059592,0.17,0.28,1.07,-3.67,0.21,0.77,32.30,67.00,215.17,7.49,318.92
2025-02-14 20:55:27.174593,0.18,0.28,1.06,-3.83,0.02,0.92,32.30,67.00,215.17,7.49,318.82
2025-02-14 20:55:27.297822,0.18,0.27,1.07,-3.82,0.15,0.72,32.30,67.00,215.17,7.49,318.94
2025-02-14 20:55:27.423905,0.18,0.28,1.07,-3.76,0.21,0.96,32.30,67.00,215.17,7.49,318.90
2025-02-14 20:55:27.547040,0.18,0.28,1.07,-3.89,0.15,0.62,32.30,67.00,215.17,7.49,318.75
2025-02-14 20:55:27.667889,0.18,0.28,1.06,-4.01,0.15,0.84,32.30,67.00,215.17,7.49,318.90
2025-02-14 20:55:27.794495,0.18,0.28,1.07,-3.90,0.17,0.92,32.30,67.00,215.17,7.49,318.89
2025-02-14 20:55:27.922404,0.18,0.27,1.06,-3.77,0.11,0.92,32.30,67.00,215.17,7.49,318.78
2025-02-14 20:55:28.046512,0.19,0.28,1.06,-3.85,0.27,0.90,32.30,67.00,215.17,7.49,318.89
2025-02-14 20:55:28.257930,0.18,0.28,1.07,-3.69,0.14,1.11,32.30,67.00,215.17,7.49,319.89
2025-02-14 20:55:28.369158,0.19,0.28,1.07,-3.75,0.11,0.95,32.30,67.00,215.17,7.49,319.94
2025-02-14 20:55:28.480615,0.18,0.28,1.07,-3.72,0.23,1.00,32.30,67.00,215.17,7.52,319.82
2025-02-14 20:55:28.590882,0.18,0.27,1.05,-3.86,0.08,0.98,32.30,67.00,215.17,7.52,319.74
2025-02-14 20:55:28.695587,0.18,0.27,1.07,-4.05,0.24,0.98,32.30,67.00,215.17,7.52,318.87
2025-02-14 20:55:28.820972,0.18,0.28,1.07,-3.73,-0.01,0.82,32.30,67.00,215.17,7.49,318.89
2025-02-14 20:55:28.958740,0.18,0.28,1.05,-4.11,0.54,1.02,32.30,67.00,215.17,7.49,318.73
2025-02-14 20:55:29.073653,0.18,0.29,1.07,-3.92,0.16,0.82,32.30,67.00,215.17,7.52,318.87
2025-02-14 20:55:29.187047,0.18,0.28,1.06,-3.89,0.08,0.81,32.30,67.00,215.17,7.52,318.73
2025-02-14 20:55:29.317075,0.18,0.27,1.08,-3.95,-0.05,0.89,32.30,67.00,215.17,7.49,318.73
2025-02-14 20:55:29.455160,0.18,0.27,1.06,-3.70,0.40,0.77,32.30,67.00,215.17,7.49,318.80
2025-02-14 20:55:29.569066,0.18,0.28,1.06,-3.71,0.20,0.91,32.30,67.00,215.17,7.52,318.75
2025-02-14 20:55:29.687480,0.18,0.28,1.06,-4.00,0.05,0.73,32.30,67.00,215.17,7.52,318.75
2025-02-14 20:55:29.814287,0.18,0.28,1.07,-3.72,0.18,0.98,32.30,67.00,215.17,7.52,318.78
2025-02-14 20:55:29.939085,0.18,0.28,1.06,-3.81,0.01,0.80,32.30,67.00,215.17,7.52,318.73
2025-02-14 20:55:30.063867,0.18,0.28,1.07,-4.09,0.19,0.85,32.30,67.00,215.17,7.52,318.87
2025-02-14 20:55:30.271814,0.18,0.27,1.07,-3.75,0.12,0.69,32.30,67.00,215.17,7.52,319.70
2025-02-14 20:55:30.381241,0.18,0.28,1.07,-3.81,0.07,0.77,32.30,67.00,215.17,7.52,319.80
2025-02-14 20:55:30.489654,0.18,0.27,1.07,-4.00,0.28,0.69,32.30,67.00,215.17,7.52,319.70
2025-02-14 20:55:30.624473,0.18,0.28,1.06,-3.99,0.05,0.84,32.30,67.00,215.17,7.52,319.77
2025-02-14 20:55:30.730150,0.19,0.28,1.07,-3.74,0.21,0.87,32.30,67.00,215.17,7.52,318.89
2025-02-14 20:55:30.853026,0.18,0.28,1.07,-3.79,0.07,0.95,32.30,67.00,215.17,7.52,318.78
2025-02-14 20:55:30.968750,0.18,0.28,1.06,-4.15,0.46,0.89,32.30,67.00,215.17,7.52,318.73
2025-02-14 20:55:31.087919,0.18,0.27,1.08,-3.96,0.27,1.02,32.30,67.00,217.91,7.52,318.82
2025-02-14 20:55:31.212050,0.18,0.28,1.07,-3.68,0.15,0.89,32.30,67.00,215.17,7.52,318.72
2025-02-14 20:55:31.330826,0.17,0.28,1.07,-3.99,0.12,0.85,32.30,67.00,215.17,7.52,318.73
2025-02-14 20:55:31.459681,0.18,0.28,1.06,-3.79,0.15,0.72,32.30,67.00,215.17,7.49,318.80
2025-02-14 20:55:31.586708,0.17,0.28,1.08,-3.69,-0.05,0.77,32.30,67.00,215.17,7.49,318.65
2025-02-14 20:55:31.714286,0.18,0.27,1.06,-3.60,0.08,0.66,32.30,67.00,215.17,7.49,318.72
2025-02-14 20:55:31.828464,0.19,0.27,1.07,-3.92,0.05,0.69,32.30,67.00,215.17,7.46,318.77
2025-02-14 20:55:31.953133,0.19,0.27,1.07,-3.71,0.25,0.80,32.30,67.00,215.17,7.46,318.70
2025-02-14 20:55:32.083743,0.18,0.28,1.08,-4.06,-0.02,0.80,32.30,67.00,215.17,7.46,318.85
2025-02-14 20:55:32.295551,0.18,0.27,1.06,-3.92,0.37,1.04,32.30,67.00,215.17,7.46,319.65
2025-02-14 20:55:32.400270,0.18,0.28,1.08,-3.90,0.06,0.89,32.30,67.00,215.17,7.46,319.82
2025-02-14 20:55:32.504033,0.18,0.28,1.07,-3.81,0.28,0.94,32.30,67.00,215.17,7.46,319.91
2025-02-14 20:55:32.614283,0.18,0.28,1.07,-3.79,0.33,0.88,32.30,67.00,215.17,7.46,319.75
2025-02-14 20:55:32.724955,0.18,0.28,1.07,-3.76,0.26,0.86,32.30,67.00,215.17,7.46,318.82
2025-02-14 20:55:32.849985,0.18,0.27,1.06,-3.82,0.55,1.06,32.30,67.00,215.17,7.46,318.84
2025-02-14 20:55:32.979422,0.18,0.27,1.07,-3.69,0.12,0.84,32.30,67.00,217.91,7.46,318.67
2025-02-14 20:55:33.099519,0.18,0.28,1.06,-3.27,0.10,0.69,32.30,67.00,215.17,7.46,318.80
2025-02-14 20:55:33.223832,0.18,0.28,1.06,-3.73,0.27,0.92,32.30,67.00,215.17,7.46,318.80
2025-02-14 20:55:33.348910,0.22,0.31,1.11,-3.05,8.42,1.59,32.30,67.00,215.17,7.49,318.75
2025-02-14 20:55:33.473007,0.18,0.28,1.07,-3.97,0.20,0.83,32.30,67.00,215.17,7.49,318.82
2025-02-14 20:55:33.603159,0.18,0.27,1.06,-3.78,-0.15,0.73,32.30,67.00,215.17,7.46,318.73
2025-02-14 20:55:33.721893,0.18,0.27,1.08,-3.46,-0.42,0.78,32.30,67.00,215.17,7.49,318.73
2025-02-14 20:55:33.851606,0.18,0.28,1.07,-3.75,0.08,0.95,32.30,67.00,215.17,7.49,318.84
2025-02-14 20:55:33.985958,0.18,0.28,1.07,-3.87,0.01,0.82,32.30,67.00,215.17,7.49,318.73
2025-02-14 20:55:34.097305,0.18,0.29,1.07,-3.89,0.47,0.95,32.30,67.00,217.91,7.49,318.72
2025-02-14 20:55:34.321771,0.18,0.27,1.06,-3.81,-0.26,0.93,32.30,67.00,215.17,7.49,319.75
2025-02-14 20:55:34.446608,0.18,0.28,1.07,-3.63,0.21,0.92,32.30,67.00,215.17,7.49,319.80
2025-02-14 20:55:34.552854,0.18,0.28,1.07,-3.88,0.24,0.92,32.30,67.00,215.17,7.49,319.87
2025-02-14 20:55:34.673229,0.18,0.28,1.06,-3.95,0.07,0.89,32.30,67.00,215.17,7.49,319.77
2025-02-14 20:55:34.781340,0.19,0.28,1.06,-3.95,0.64,0.76,32.30,67.00,217.91,7.49,318.82
2025-02-14 20:55:34.892533,0.18,0.27,1.07,-4.08,0.11,0.93,32.30,67.00,217.91,7.49,318.75
2025-02-14 20:55:35.000377,0.19,0.28,1.06,-3.76,0.15,0.90,32.30,67.00,215.17,7.52,318.65
2025-02-14 20:55:35.129099,0.18,0.27,1.06,-3.67,-0.05,0.82,32.30,67.00,217.91,7.49,318.84
2025-02-14 20:55:35.258558,0.17,0.28,1.07,-3.95,0.19,1.17,32.30,67.00,215.17,7.52,318.82
2025-02-14 20:55:35.367375,0.18,0.28,1.06,-3.85,0.06,0.92,32.30,67.00,217.91,7.52,318.65
2025-02-14 20:55:35.493738,0.18,0.28,1.06,-3.83,0.21,0.85,32.30,67.00,215.17,7.52,318.78
2025-02-14 20:55:35.631695,0.18,0.27,1.07,-3.95,-0.11,0.66,32.30,67.00,215.17,7.52,318.80
2025-02-14 20:55:35.749667,0.19,0.27,1.07,-3.53,0.09,0.85,32.30,67.00,215.17,7.52,318.58
2025-02-14 20:55:35.865973,0.18,0.28,1.06,-4.08,0.18,1.05,32.30,67.00,215.17,7.52,318.77
2025-02-14 20:55:35.995135,0.18,0.28,1.07,-3.89,0.03,0.79,32.30,67.00,217.91,7.52,318.63
2025-02-14 20:55:36.114878,0.18,0.29,1.07,-3.91,0.09,0.76,32.30,67.00,215.17,7.52,318.61
2025-02-14 20:55:36.330463,0.18,0.28,1.06,-3.93,0.28,0.92,32.30,67.00,217.91,7.52,319.72
2025-02-14 20:55:36.446370,0.17,0.28,1.08,-3.56,-1.86,0.95,32.30,67.00,215.17,7.52,319.79
2025-02-14 20:55:36.565627,0.18,0.27,1.07,-3.78,0.08,0.89,32.30,67.00,215.17,7.52,319.77
2025-02-14 20:55:36.686914,0.17,0.28,1.09,-3.63,-0.92,0.85,32.30,67.00,215.17,7.52,319.67
2025-02-14 20:55:36.791546,0.18,0.28,1.08,-3.61,-0.94,0.73,32.30,67.00,215.17,7.52,318.75
2025-02-14 20:55:36.908767,0.18,0.28,1.07,-3.98,0.22,0.85,32.30,67.00,215.17,7.52,318.77
2025-02-14 20:55:37.033310,0.19,0.27,1.08,-2.68,-1.51,0.60,32.30,67.00,215.17,7.52,318.56
2025-02-14 20:55:37.159415,0.19,0.27,1.07,-3.82,0.32,0.77,32.30,67.00,217.91,7.55,318.75
2025-02-14 20:55:37.268397,0.18,0.27,1.07,-4.05,0.21,1.03,32.30,67.00,217.91,7.52,318.80
2025-02-14 20:55:37.414946,0.17,0.28,1.11,-3.93,-1.24,0.73,32.30,67.00,217.91,7.55,318.55
2025-02-14 20:55:37.533336,0.18,0.27,1.07,-3.74,0.18,0.98,32.30,67.00,217.91,7.55,318.75
2025-02-14 20:55:37.654291,0.18,0.28,1.07,-4.11,-0.03,0.78,32.30,67.00,215.17,7.55,318.78
2025-02-14 20:55:37.765966,0.17,0.28,1.08,-3.81,-0.45,0.79,32.30,67.00,217.91,7.55,318.44
2025-02-14 20:55:37.933076,0.18,0.28,1.08,-3.79,0.06,0.82,32.30,67.00,215.17,7.52,318.53
2025-02-14 20:55:38.050533,0.18,0.28,1.07,-3.79,0.19,1.11,32.30,67.00,217.91,7.55,318.61
2025-02-14 20:55:38.186589,0.18,0.27,1.07,-3.35,-0.63,0.68,32.30,67.00,217.91,7.55,318.63
2025-02-14 20:55:38.297958,0.18,0.28,1.06,-3.57,-0.23,0.88,32.30,67.00,215.17,7.55,319.69
2025-02-14 20:55:38.443269,0.17,0.27,1.06,-3.75,0.25,0.74,32.30,67.00,217.91,7.55,319.69
2025-02-14 20:55:38.577908,0.18,0.28,1.06,-3.61,-0.19,0.82,32.30,67.00,217.91,7.55,319.72
2025-02-14 20:55:38.704681,0.17,0.28,1.07,-3.82,0.21,0.83,32.30,67.00,215.17,7.55,319.60
2025-02-14 20:55:38.819194,0.18,0.28,1.06,-3.82,0.15,0.79,32.30,67.00,215.17,7.55,318.70
2025-02-14 20:55:38.944961,0.18,0.28,1.07,-3.66,-0.40,0.73,32.30,67.00,215.17,7.55,318.73
2025-02-14 20:55:39.075963,0.18,0.28,1.07,-3.72,0.18,0.93,32.30,67.00,217.91,7.55,318.68
2025-02-14 20:55:39.188183,0.18,0.28,1.07,-4.09,0.27,0.82,32.30,67.00,215.17,7.58,318.70
2025-02-14 20:55:39.300749,0.18,0.28,1.07,-3.69,0.17,0.86,32.30,67.00,217.91,7.55,318.68
2025-02-14 20:55:39.411731,0.17,0.28,1.07,-3.85,0.17,0.96,32.30,67.00,217.91,7.55,318.43
2025-02-14 20:55:39.537566,0.18,0.28,1.07,-3.66,0.21,0.88,32.30,67.00,217.91,7.55,318.73
2025-02-14 20:55:39.678421,0.18,0.28,1.03,-4.10,-0.05,0.89,32.30,67.00,217.91,7.55,318.68
2025-02-14 20:55:39.792624,0.18,0.28,1.06,-3.69,0.14,0.87,32.30,67.00,217.91,7.55,318.36
2025-02-14 20:55:39.907217,0.18,0.27,1.07,-3.79,0.24,0.71,32.30,67.00,217.91,7.55,318.70
2025-02-14 20:55:40.032446,0.18,0.27,1.07,-3.40,0.32,0.69,32.30,67.00,217.91,7.58,318.56
2025-02-14 20:55:40.156546,0.18,0.27,1.06,-3.85,1.15,0.82,32.30,67.00,217.91,7.55,318.72
2025-02-14 20:55:40.377773,0.18,0.27,1.07,-3.87,0.27,0.90,32.30,67.00,217.91,7.55,319.70
2025-02-14 20:55:40.489567,0.18,0.28,1.10,-3.95,1.06,1.07,32.30,67.00,217.91,7.58,319.74
2025-02-14 20:55:40.616218,0.18,0.27,1.07,-3.64,-0.18,1.02,32.30,67.00,215.17,7.58,319.72
2025-02-14 20:55:40.740570,0.17,0.27,1.06,-3.83,0.11,0.96,32.30,67.00,217.91,7.58,319.74
2025-02-14 20:55:40.851856,0.19,0.28,1.06,-3.76,0.24,0.86,32.30,67.00,217.91,7.58,318.78
2025-02-14 20:55:40.961347,0.18,0.27,1.07,-4.09,0.44,0.89,32.30,67.00,217.91,7.58,318.80
2025-02-14 20:55:41.082827,0.18,0.28,1.07,-3.82,-0.03,0.86,32.30,67.00,215.17,7.58,318.70
2025-02-14 20:55:41.195646,0.18,0.28,1.07,-3.82,0.07,0.79,32.30,67.00,215.17,7.58,318.75
2025-02-14 20:55:41.307774,0.18,0.27,1.06,-3.86,0.02,0.93,32.30,67.00,217.91,7.58,318.73
2025-02-14 20:55:41.427111,0.19,0.28,1.06,-3.86,0.44,0.92,32.30,67.00,217.91,7.58,318.68
2025-02-14 20:55:41.549557,0.18,0.28,1.07,-3.70,0.02,0.89,32.30,67.00,215.17,7.58,318.73
2025-02-14 20:55:41.681976,0.18,0.27,1.06,-3.77,-0.04,0.90,32.30,67.00,217.91,7.58,318.63
2025-02-14 20:55:41.809451,0.18,0.28,1.07,-3.94,0.06,0.97,32.30,67.00,215.17,7.58,318.67
2025-02-14 20:55:41.939262,0.18,0.27,1.06,-3.67,-0.02,0.76,32.30,67.00,215.17,7.58,320.65
2025-02-14 20:55:42.058328,0.18,0.27,1.08,22.00,-14.51,-2.50,32.30,67.00,215.17,7.58,320.43
2025-02-14 20:55:42.191668,0.19,0.29,1.06,-0.11,-1.10,-0.34,32.30,67.00,217.91,7.58,319.82
2025-02-14 20:55:42.334724,0.19,0.29,1.08,-2.86,0.15,0.79,32.30,67.00,215.17,7.58,320.67
2025-02-14 20:55:42.449838,0.19,0.29,1.06,-4.26,0.09,1.02,32.30,67.00,217.91,7.61,320.79
2025-02-14 20:55:42.576496,0.19,0.28,1.04,-4.24,0.69,0.86,32.30,67.00,215.17,7.61,320.82
2025-02-14 20:55:42.706636,0.19,0.28,1.07,-3.65,0.08,0.79,32.30,67.00,217.91,7.61,320.81
2025-02-14 20:55:42.829477,0.18,0.28,1.07,-3.88,-0.08,0.84,32.30,67.00,215.17,7.58,7.17
2025-02-14 20:55:42.962847,0.18,0.27,1.12,-3.23,-1.67,0.75,32.30,67.00,215.17,7.58,319.89
2025-02-14 20:55:43.081069,0.20,0.31,1.14,-10.36,0.84,1.28,32.30,67.00,217.91,7.58,319.52
2025-02-14 20:55:43.207785,0.18,0.27,1.09,-5.34,1.65,0.84,32.30,67.00,217.91,7.58,319.58
2025-02-14 20:55:43.329043,0.19,0.28,1.06,-3.27,-0.15,0.73,32.30,67.00,217.91,7.58,319.72
2025-02-14 20:55:43.448236,0.19,0.28,1.05,-3.60,0.08,0.80,32.30,67.00,215.17,7.58,319.72
2025-02-14 20:55:43.559511,0.18,0.28,1.07,-4.08,0.05,0.64,32.30,67.00,217.91,7.58,319.57
2025-02-14 20:55:43.687641,0.19,0.29,1.06,-3.00,-0.04,0.81,32.30,67.00,215.17,7.58,319.57
2025-02-14 20:55:43.801014,0.19,0.28,1.08,-3.02,-0.56,0.59,32.30,67.00,217.91,7.58,319.72
2025-02-14 20:55:43.947528,0.17,0.27,1.09,12.11,-10.68,-0.69,32.30,67.00,215.17,7.58,319.50
2025-02-14 20:55:44.089846,0.18,0.29,1.06,-6.14,1.56,-0.44,32.30,67.00,217.91,7.58,319.60
2025-02-14 20:55:44.214856,0.14,0.30,0.97,-8.08,11.60,12.17,32.30,67.00,215.17,7.58,319.45
2025-02-14 20:55:44.345982,0.17,0.21,1.10,-11.37,4.66,1.82,32.30,67.00,215.17,7.58,321.06
2025-02-14 20:55:44.466522,0.17,0.23,1.07,-1.94,-1.79,0.79,32.30,67.00,215.17,7.58,321.05
2025-02-14 20:55:44.589305,0.19,0.20,1.06,-7.30,4.60,1.37,32.30,67.00,215.17,7.58,321.08
2025-02-14 20:55:44.698204,0.14,0.21,1.19,-6.97,2.31,1.10,32.30,67.00,215.17,7.61,320.99
2025-02-14 20:55:44.823125,0.16,0.22,1.08,-3.83,0.38,0.95,32.30,67.00,215.17,7.61,320.13
2025-02-14 20:55:44.956251,0.16,0.22,1.08,-3.92,0.10,0.75,32.30,67.00,215.17,7.58,320.01
2025-02-14 20:55:45.080384,0.16,0.22,1.08,-3.94,-0.05,0.80,32.30,67.00,215.17,7.61,320.04
2025-02-14 20:55:45.209166,0.16,0.22,1.09,-4.02,0.10,0.76,32.30,67.00,215.17,7.58,320.08
2025-02-14 20:55:45.323782,0.16,0.22,1.09,-4.02,0.24,0.87,32.30,67.00,215.17,7.61,320.09
2025-02-14 20:55:45.450022,0.17,0.21,1.08,-3.69,0.21,0.98,32.30,67.00,215.17,7.61,320.08
2025-02-14 20:55:45.579967,0.16,0.22,1.09,-3.69,0.03,0.96,32.30,67.00,215.17,7.58,320.03
2025-02-14 20:55:45.699379,0.16,0.22,1.08,-3.66,0.22,0.97,32.30,67.00,215.17,7.58,320.14
2025-02-14 20:55:45.817601,0.16,0.22,1.08,-3.63,0.08,0.76,32.30,67.00,215.17,7.58,320.03
2025-02-14 20:55:45.942258,0.16,0.22,1.09,-3.91,0.21,0.66,32.30,67.00,215.17,7.58,319.94
2025-02-14 20:55:46.070495,0.16,0.22,1.09,-3.76,0.09,0.79,32.30,67.00,215.17,7.58,319.99
2025-02-14 20:55:46.191804,0.16,0.22,1.08,-4.09,0.18,0.73,32.30,67.00,215.17,7.58,320.04
2025-02-14 20:55:46.399159,0.17,0.22,1.08,-4.02,0.11,0.75,32.30,67.00,215.17,7.55,321.06
